Timestamp,AccelX,AccelY,AccelZ,GyroX,GyroY,GyroZ,QuatW,QuatX,QuatY,QuatZ
2020-06-17 13:14:09.4069,0.1380615234375,-0.973068237304688,-0.175430297851562,-0.0227282159030437,0.0536666885018349,0.00995223317295313,0.767980959695214,0.634717637593991,0.0856665892295089,3.9528520028537e-05
2020-06-17 13:14:09.4170,0.139389038085938,-0.977737426757812,-0.174942016601562,-0.0225042439997196,0.0552331618964672,0.00872744526714087,0.768013378294044,0.634670285983966,0.0857266819673431,0.000121857586113647
2020-06-17 13:14:09.4270,0.139434814453125,-0.9864501953125,-0.175430297851562,-0.0211705323308706,0.0631123930215836,0.00538065051659942,0.768045430442082,0.634618724544501,0.0858210059279217,0.000214886173483238
2020-06-17 13:14:09.4370,0.138275146484375,-0.98980712890625,-0.17730712890625,-0.0211705323308706,0.0631123930215836,0.00538065051659942,0.768445563742884,0.634101233161948,0.0860640431521541,0.000148804174126142
2020-06-17 13:14:09.4470,0.134292602539062,-0.982467651367188,-0.179214477539062,-0.0213367138057947,0.0659574419260025,0.00234251655638218,0.768450257551498,0.634058580401216,0.0863358939009437,0.000178081317556965
2020-06-17 13:14:09.4570,0.130599975585938,-0.97552490234375,-0.182937622070312,-0.0185212194919586,0.0763701349496841,-0.00293187401257455,0.768397165165006,0.634078044774919,0.0866648566232835,0.000179797842456249
2020-06-17 13:14:09.4670,0.127105712890625,-0.975616455078125,-0.1875,-0.0185212194919586,0.0763701349496841,-0.00293187401257455,0.768263328396704,0.634189306664977,0.0870364084741919,0.000212491242342075
2020-06-17 13:14:09.4770,0.124755859375,-0.9755859375,-0.189071655273438,-0.0112116420641541,0.0822575911879539,0.00330178719013929,0.768012280371338,0.634442832251721,0.0874034776319543,0.000248799260207284
2020-06-17 13:14:09.4870,0.1248779296875,-0.973709106445312,-0.1873779296875,-0.011241203173995,0.0885426476597786,0.00700464611873031,0.767794334551198,0.63463961617118,0.0878884206136839,0.000207217789555142
2020-06-17 13:14:09.4970,0.128158569335938,-0.970367431640625,-0.185562133789062,-0.011241203173995,0.0885426476597786,0.00700464611873031,0.767576038026066,0.634847826717354,0.0882906040601571,0.000178871888142113
2020-06-17 13:14:09.5070,0.133590698242188,-0.967376708984375,-0.181610107421875,-0.0092696649953723,0.0624620467424393,0.0101711452007294,0.767371707301922,0.63505864021799,0.0885502121316474,0.000215054531142816
2020-06-17 13:14:09.5170,0.141510009765625,-0.966949462890625,-0.17584228515625,-0.0082677835598588,0.0538432560861111,0.00625017285346985,0.767252897818917,0.635184476831498,0.0886768782160722,0.000287142163133774
2020-06-17 13:14:09.5270,0.149765014648438,-0.96942138671875,-0.175552368164062,-0.00784460734575987,0.0502069778740406,0.00313241011463106,0.7672508026542,0.635190723805513,0.0886497391830478,0.000417085952087584
2020-06-17 13:14:09.5370,0.153457641601562,-0.972213745117188,-0.179550170898438,-0.0200805012136698,0.062921442091465,0.00274811591953039,0.767404454005821,0.635019308046832,0.0885466125536934,0.000616267000710822
2020-06-17 13:14:09.5470,0.145645141601562,-0.977508544921875,-0.18017578125,-0.0275203082710505,0.0583738274872303,0.00041944786789827,0.767682326501221,0.634708534991607,0.0883636211807963,0.000889740579434903
2020-06-17 13:14:09.5570,0.13427734375,-0.98345947265625,-0.184600830078125,-0.0297043658792973,0.0650602281093597,0.000951281108427793,0.767974481501861,0.634382280731077,0.0881639323118253,0.00119945641865531
2020-06-17 13:14:09.5669,0.126373291015625,-0.985794067382812,-0.188369750976562,-0.0289187338203192,0.0629938766360283,0.00588398799300194,0.768202973373099,0.634125120837106,0.0880187902966885,0.00148841484887389
2020-06-17 13:14:09.5770,0.120681762695312,-0.984725952148438,-0.1845703125,-0.026851586997509,0.0629552602767944,0.00448795920237899,0.768373510133464,0.633921702346943,0.0879921036262385,0.00167747374434705
2020-06-17 13:14:09.5870,0.122238159179688,-0.982131958007812,-0.181961059570312,-0.022742597386241,0.0635837689042091,0.00354999373666942,0.768446714136083,0.633813506981531,0.088130878182855,0.00174189894893206
2020-06-17 13:14:09.5970,0.129638671875,-0.979812622070312,-0.178329467773438,-0.01603595726192,0.065185658633709,0.00104076333809644,0.768394620838484,0.63383105527123,0.0884598827557139,0.00165806606800369
2020-06-17 13:14:09.6070,0.136428833007812,-0.97625732421875,-0.174911499023438,-0.0107067069038749,0.0682136714458466,-0.00104422541335225,0.768312272898552,0.633864115232717,0.0889405582344557,0.00145321527976413
2020-06-17 13:14:09.6170,0.1407470703125,-0.9705810546875,-0.173248291015625,-0.00923744030296803,0.0647076219320297,2.84958241536515e-05,0.768278967982631,0.633832617008654,0.0894546583995978,0.00122680973120003
2020-06-17 13:14:09.6270,0.1409912109375,-0.966903686523438,-0.175521850585938,-0.00954556837677956,0.0696957260370255,0.00120454770512879,0.768238344275241,0.633835934197025,0.0897801642850904,0.00117345931465012
2020-06-17 13:14:09.6370,0.135055541992188,-0.968368530273438,-0.17578125,-0.0140545666217804,0.0721943005919456,0.00675910292193294,0.768259233211945,0.633798543613153,0.0898631028715283,0.00133395679901302
2020-06-17 13:14:09.6470,0.131637573242188,-0.971572875976562,-0.177200317382812,-0.0113131077960134,0.0615653581917286,0.0147371347993612,0.768336815823583,0.633717710618715,0.0897651031954192,0.00162078578689495
2020-06-17 13:14:09.6590,0.13323974609375,-0.973861694335938,-0.1802978515625,-0.0112409368157387,0.0549130514264107,0.0186820756644011,0.768363915162974,0.633713211270936,0.0895578082228926,0.00196436310698743
2020-06-17 13:14:09.6670,0.139724731445312,-0.977920532226562,-0.182891845703125,-0.00621501915156841,0.0584009923040867,0.0172706004232168,0.768350926445112,0.633753251167446,0.0893788479519051,0.0022565470127228
2020-06-17 13:14:09.6770,0.1429443359375,-0.980133056640625,-0.181259155273438,-0.00373961078003049,0.0640282481908798,0.0125741148367524,0.768281439112904,0.633839282315875,0.0893612693979011,0.00244090956328733
2020-06-17 13:14:09.6870,0.144134521484375,-0.9764404296875,-0.179885864257812,-0.00102611596230417,0.0613874606788158,0.0100734066218138,0.768173867799897,0.633951766156727,0.08948566201869,0.00252652116360774
2020-06-17 13:14:09.6969,0.141098022460938,-0.971527099609375,-0.17889404296875,-0.00102611596230417,0.0613874606788158,0.0100734066218138,0.768059829179542,0.6340587368244,0.0897060174631776,0.00253919046853581
2020-06-17 13:14:09.7070,0.136474609375,-0.968490600585938,-0.17425537109375,-0.00358807691372931,0.0546017251908779,-0.00498357322067022,0.76799232181468,0.634108880370726,0.0899301872551635,0.00250656915582793
2020-06-17 13:14:09.7170,0.134780883789062,-0.969467163085938,-0.171340942382812,-0.00306769530288875,0.0408664718270302,-0.0097676757723093,0.767936288869705,0.634161581939916,0.0900373438329944,0.00249418202789166
2020-06-17 13:14:09.7270,0.137847900390625,-0.97369384765625,-0.167770385742188,0.00258113560266793,0.0288564153015614,-0.0110084423795342,0.767892744572256,0.634209367297254,0.0900724055778505,0.00248455612216955
2020-06-17 13:14:09.7370,0.141738891601562,-0.979263305664062,-0.169036865234375,0.00754819763824344,0.0234454050660133,-0.00769174192100763,0.767864484986324,0.634245359479473,0.0900619759362378,0.00240773044635183
2020-06-17 13:14:09.7470,0.143630981445312,-0.983444213867188,-0.175048828125,0.010537595488131,0.0259908549487591,-0.00335132190957665,0.767835578954955,0.634275868098152,0.0900968481267456,0.00228140239148623
2020-06-17 13:14:09.7570,0.143280029296875,-0.990219116210938,-0.176986694335938,0.00961907114833593,0.0320578031241894,0.00189910014159977,0.767780578331862,0.634333175353109,0.0901650559881921,0.00216075484039461
2020-06-17 13:14:09.7680,0.140716552734375,-0.990280151367188,-0.178436279296875,0.00700517883524299,0.0325379706919193,0.0024506407789886,0.767725740587237,0.634386408953915,0.0902598295488273,0.00205780080473346
2020-06-17 13:14:09.7770,0.137786865234375,-0.98516845703125,-0.181320190429688,0.00511646503582597,0.0325403660535812,-0.00199923501349986,0.767677369052479,0.634434949154451,0.0903315785310201,0.0019895366665711
2020-06-17 13:14:09.7870,0.134780883789062,-0.9788818359375,-0.1839599609375,0.000620782840996981,0.0340706184506416,-0.00518038077279925,0.767604814996915,0.634518431330213,0.0903628365134748,0.00194063727591131
2020-06-17 13:14:09.7970,0.134719848632812,-0.974227905273438,-0.18408203125,-0.00641102762892842,0.0311467330902815,-0.00841665454208851,0.767527313266606,0.63460806180505,0.0903926615809251,0.00189684319337835
2020-06-17 13:14:09.8070,0.13507080078125,-0.9722900390625,-0.18145751953125,-0.0137171437963843,0.0294537618756294,-0.0104214819148183,0.767445118130341,0.634699035446911,0.0904534506438964,0.00181612975289914
2020-06-17 13:14:09.8169,0.137954711914062,-0.971603393554688,-0.181121826171875,-0.0132731944322586,0.0300923883914948,-0.0131315141916275,0.767381921916288,0.634761992367098,0.0905499555336638,0.00170426379028
2020-06-17 13:14:09.8270,0.14166259765625,-0.972686767578125,-0.180938720703125,-0.0161787029355764,0.0282907597720623,-0.0117754330858588,0.767365373117018,0.634768109612299,0.0906494432600636,0.00158417071314647
2020-06-17 13:14:09.8370,0.141387939453125,-0.976516723632812,-0.181167602539062,-0.0236984044313431,0.0265807434916496,-0.00403229240328074,0.767362325374035,0.634763670613936,0.0907080472436616,0.00148129352876016
2020-06-17 13:14:09.8470,0.139846801757812,-0.982894897460938,-0.183929443359375,-0.031704667955637,0.0289256572723389,0.00214943732134998,0.767395948490414,0.634720076810183,0.0907295300095974,0.00142643570178897
2020-06-17 13:14:09.8570,0.135528564453125,-0.990310668945312,-0.187286376953125,-0.0395324937999249,0.0364642664790154,0.00798682030290365,0.7674831125458,0.634616640942011,0.0907156535161809,0.00143568924973645
2020-06-17 13:14:09.8670,0.131515502929688,-0.990432739257812,-0.190536499023438,-0.0434401519596577,0.0469581857323647,0.0150524526834488,0.767608982359509,0.634467853688722,0.0906902665136797,0.00150611961823263
2020-06-17 13:14:09.8770,0.128189086914062,-0.982254028320312,-0.188873291015625,-0.0433160476386547,0.0523175336420536,0.0163715165108442,0.767748080185361,0.634300354767281,0.0906823535705673,0.00162974375171645
2020-06-17 13:14:09.8870,0.128677368164062,-0.9697265625,-0.183349609375,-0.037441648542881,0.0578156299889088,0.0160141196101904,0.767856027643879,0.634165720189727,0.0907073260332289,0.00177232928894996
2020-06-17 13:14:09.8970,0.130157470703125,-0.959762573242188,-0.179000854492188,-0.024967135861516,0.0450742691755295,0.0120739731937647,0.767938918008127,0.634059222318792,0.0907481937117694,0.00186712052285711
2020-06-17 13:14:09.9070,0.13226318359375,-0.956863403320312,-0.177017211914062,-0.0186879336833954,0.037263747304678,0.00414254702627659,0.767988672247334,0.63399051540576,0.0908068466271345,0.00188209483062249
2020-06-17 13:14:09.9170,0.138900756835938,-0.962875366210938,-0.177810668945312,-0.0210541523993015,0.0326956287026405,-0.00326183973811567,0.768027503927452,0.633936754856531,0.0908543269558367,0.0018534633363772
2020-06-17 13:14:09.9270,0.141921997070312,-0.9713134765625,-0.182647705078125,-0.0254198722541332,0.0324474200606346,-0.00873277150094509,0.768082556207167,0.633866541425383,0.0908797895852679,0.00180509186048283
2020-06-17 13:14:09.9370,0.139450073242188,-0.976089477539062,-0.189010620117188,-0.034583542495966,0.0360741131007671,-0.00627334229648113,0.768163166336067,0.633769654432523,0.0908746227283771,0.0017826802862398
2020-06-17 13:14:09.9470,0.137527465820312,-0.979385375976562,-0.194351196289062,-0.0500376001000404,0.0383947938680649,-0.000978711643256247,0.768295325953006,0.633613129461934,0.0908483692833218,0.00180778615428403
2020-06-17 13:14:09.9570,0.13427734375,-0.979400634765625,-0.191314697265625,-0.0730494409799576,0.0450391136109829,0.00316703110001981,0.768482643882083,0.633392010680941,0.0908043895753131,0.00188406247595657
2020-06-17 13:14:09.9670,0.1318359375,-0.975860595703125,-0.18585205078125,-0.0837420374155045,0.0363723896443844,0.0068009146489203,0.768701283003432,0.633129041349193,0.0907856058868223,0.00198198710687273
2020-06-17 13:14:09.9770,0.134109497070312,-0.975692749023438,-0.1837158203125,-0.0840576216578484,0.0266891345381737,0.0106486491858959,0.768935691629732,0.63284902372615,0.0907511852860475,0.00205856161952342
2020-06-17 13:14:09.9870,0.139022827148438,-0.9810791015625,-0.183319091796875,-0.0785438120365143,0.0222781412303448,0.0162122584879398,0.76915517739292,0.632591523565415,0.0906854401592953,0.0021043635539848
2020-06-17 13:14:09.9970,0.143295288085938,-0.986831665039062,-0.183807373046875,-0.09797503054142,0.0440414920449257,0.0223420578986406,0.769371303993028,0.632333048558073,0.090653815202559,0.00214431400245817
2020-06-17 13:14:10.0070,0.145584106445312,-0.990081787109375,-0.182449340820312,-0.133907735347748,0.0658863410353661,0.0282822381705046,0.769671369577928,0.63196034006519,0.0907022195279587,0.00228447136729008
2020-06-17 13:14:10.0160,0.140655517578125,-0.9921875,-0.186676025390625,-0.171657249331474,0.0800993591547012,0.0464034527540207,0.770107899587909,0.631419342038433,0.0907576073569736,0.00254837181140275
2020-06-17 13:14:10.0270,0.138198852539062,-0.99420166015625,-0.188385009765625,-0.192955613136292,0.0927893221378326,0.0727341249585152,0.77065329156731,0.630747576364986,0.0907865721153861,0.00296604613994318
2020-06-17 13:14:10.0370,0.130996704101562,-0.996490478515625,-0.181686401367188,-0.188584834337234,0.0534589625895023,0.103811882436275,0.771210762340051,0.630074317071591,0.0907083914930519,0.00350752482374107
2020-06-17 13:14:10.0470,0.1162109375,-0.999053955078125,-0.178176879882812,-0.160864248871803,-0.00285331066697836,0.136469960212708,0.771719988746848,0.629499664994176,0.0903451943717006,0.00402201376483907
2020-06-17 13:14:10.0570,0.110443115234375,-0.996078491210938,-0.182296752929688,-0.134656354784966,-0.0342679582536221,0.165921851992607,0.772148603363297,0.629059174327355,0.0897271295799766,0.00448684031757373
2020-06-17 13:14:10.0670,0.104690551757812,-0.98638916015625,-0.183502197265625,-0.126698017120361,-0.0418720841407776,0.18862184882164,0.772504330868595,0.628727562719769,0.0889623042321108,0.00494156771039961
2020-06-17 13:14:10.0770,0.098846435546875,-0.979782104492188,-0.189620971679688,-0.136445194482803,-0.0427764914929867,0.201594635844231,0.772855246006923,0.628406517841798,0.0881505223922818,0.00543161628731041
2020-06-17 13:14:10.0869,0.102767944335938,-0.979766845703125,-0.198089599609375,-0.142613872885704,-0.0480423606932163,0.209699168801308,0.773218687486142,0.6280725604471,0.0873060324608693,0.00594784259827817
2020-06-17 13:14:10.0970,0.1041259765625,-0.986495971679688,-0.196426391601562,-0.157099604606628,-0.0376485772430897,0.217682525515556,0.773618779880512,0.627694978584781,0.0864312005886643,0.00653030171132731
2020-06-17 13:14:10.1070,0.0965576171875,-0.9918212890625,-0.1956787109375,-0.167604446411133,-0.0503553152084351,0.221842646598816,0.774056601386216,0.627270974887303,0.0855361414357045,0.00714635729898767
2020-06-17 13:14:10.1170,0.0872344970703125,-0.996322631835938,-0.204437255859375,-0.170785322785378,-0.0845785364508629,0.221123591065407,0.774504854024127,0.626845545172249,0.0845399490346355,0.00773890224724579
2020-06-17 13:14:10.1270,0.0834197998046875,-0.9971923828125,-0.213424682617188,-0.156891614198685,-0.11828376352787,0.216779187321663,0.774936204055631,0.626466997137487,0.0833355822275238,0.00825602060254277
2020-06-17 13:14:10.1370,0.078125,-0.994705200195312,-0.204757690429688,-0.150242760777473,-0.146255746483803,0.205761685967445,0.775355122747321,0.626117801385469,0.0820126040008097,0.00865246801323641
2020-06-17 13:14:10.1470,0.0608367919921875,-0.992904663085938,-0.19390869140625,-0.139816761016846,-0.169386103749275,0.194787859916687,0.77576829166946,0.625781259100694,0.0806315364920968,0.00894028643389119
2020-06-17 13:14:10.1570,0.0504302978515625,-0.9833984375,-0.203506469726562,-0.130748152732849,-0.191090330481529,0.188862323760986,0.776188225734261,0.625445426233989,0.0791622496918991,0.00912114347005603
2020-06-17 13:14:10.1670,0.047393798828125,-0.970748901367188,-0.199615478515625,-0.125937953591347,-0.207019492983818,0.18031544983387,0.776611525437225,0.625107041907098,0.0776619173813452,0.00918429664574511
2020-06-17 13:14:10.1770,0.0562591552734375,-0.955276489257812,-0.18585205078125,-0.106958940625191,-0.215770915150642,0.157011449337006,0.776990499251916,0.62482054304663,0.0761679490120997,0.00913764753439129
2020-06-17 13:14:10.1870,0.065704345703125,-0.937118530273438,-0.175079345703125,-0.0747477412223816,-0.220872193574905,0.132120490074158,0.777351813736727,0.624546337033186,0.0747396818701135,0.0089448606811201
2020-06-17 13:14:10.1970,0.071807861328125,-0.926116943359375,-0.157608032226562,-0.0268427990376949,-0.227803602814674,0.0994605422019958,0.777593925620094,0.624413037938914,0.0733620291233155,0.00860567101037828
2020-06-17 13:14:10.2070,0.0799102783203125,-0.918777465820312,-0.141464233398438,0.022914370521903,-0.217523008584976,0.060136042535305,0.777688393772721,0.62444907223863,0.0720986323380426,0.00811822557598357
2020-06-17 13:14:10.2170,0.0751190185546875,-0.904693603515625,-0.125732421875,0.0686754658818245,-0.202019408345222,0.01641252823174,0.777630214266152,0.624652831416656,0.0710200091896353,0.00749989054829697
2020-06-17 13:14:10.2270,0.0560760498046875,-0.8846435546875,-0.110275268554688,0.109792545437813,-0.207835227251053,-0.0324687287211418,0.777429406313045,0.625013189709042,0.07012095928414,0.00671430998294251
2020-06-17 13:14:10.2370,0.03887939453125,-0.875198364257812,-0.107208251953125,0.156254321336746,-0.22282774746418,-0.0724688768386841,0.777103774464601,0.625517872149158,0.0693157282832179,0.00569606420499593
2020-06-17 13:14:10.2470,0.0322418212890625,-0.877182006835938,-0.113861083984375,0.201902493834496,-0.221924409270287,-0.102869920432568,0.776636283938273,0.62618759404277,0.0685931115121018,0.00449050003514284
2020-06-17 13:14:10.2570,0.03173828125,-0.888763427734375,-0.111526489257812,0.246128275990486,-0.215976238250732,-0.128495126962662,0.776017194697565,0.627030958203264,0.0679667099148045,0.00316501686808523
2020-06-17 13:14:10.2670,0.0381011962890625,-0.912338256835938,-0.100341796875,0.284938246011734,-0.220929190516472,-0.147605434060097,0.775266630367684,0.628020979035874,0.0674406855714586,0.00174804428203572
2020-06-17 13:14:10.2770,0.0504150390625,-0.94061279296875,-0.098663330078125,0.321213722229004,-0.240258947014809,-0.153345614671707,0.774393193663641,0.629155785959825,0.0669188437373724,0.000216687687407466
2020-06-17 13:14:10.2870,0.06390380859375,-0.962265014648438,-0.112152099609375,0.338062196969986,-0.244379922747612,-0.151585265994072,0.773432426728496,0.63039494440729,0.066352253352931,-0.00136887749202136
2020-06-17 13:14:10.2970,0.078338623046875,-0.9713134765625,-0.12799072265625,0.335039764642715,-0.234680682420731,-0.13736717402935,0.772428540374958,0.631680186842535,0.065769665603799,-0.00293983862750851
2020-06-17 13:14:10.3070,0.090179443359375,-0.9676513671875,-0.142593383789062,0.318672508001328,-0.242907449603081,-0.116541527211666,0.771436768691067,0.632946236944531,0.0651514787280221,-0.00443371952127605
2020-06-17 13:14:10.3170,0.0995330810546875,-0.950286865234375,-0.163375854492188,0.282642602920532,-0.264306753873825,-0.0869226455688477,0.770520619255567,0.634125245241664,0.0644100092092911,-0.00587361582637974
2020-06-17 13:14:10.3270,0.111541748046875,-0.931747436523438,-0.178298950195312,0.246236398816109,-0.284002155065536,-0.0534387230873108,0.76972499227956,0.635170078811976,0.0634800158806861,-0.00725912019507769
2020-06-17 13:14:10.3360,0.119125366210938,-0.919891357421875,-0.175750732421875,0.216452673077583,-0.272185981273651,-0.0216954424977303,0.76903878881837,0.636089943222501,0.062420879266166,-0.00851817208137241
2020-06-17 13:14:10.3469,0.129913330078125,-0.918991088867188,-0.174331665039062,0.211274161934853,-0.290371894836426,-0.00804354529827833,0.768421025459695,0.636929742514376,0.0612891590554502,-0.00965762467264841
2020-06-17 13:14:10.3570,0.141586303710938,-0.93603515625,-0.171951293945312,0.210923686623573,-0.304535388946533,-0.013422598131001,0.767814452582231,0.637759580010423,0.0600521987244432,-0.0108359558479302
2020-06-17 13:14:10.3670,0.145919799804688,-0.9595947265625,-0.158737182617188,0.216280102729797,-0.31606262922287,-0.0418358631432056,0.767209859748221,0.638580603379234,0.05880114050059,-0.0120942122008159
2020-06-17 13:14:10.3770,0.134857177734375,-0.981491088867188,-0.146957397460938,0.245645985007286,-0.319245100021362,-0.0846866592764854,0.766561600607355,0.639437147635376,0.0576260825336155,-0.0135159650063784
2020-06-17 13:14:10.3870,0.115219116210938,-0.9957275390625,-0.154830932617188,0.303803294897079,-0.312801331281662,-0.125013306736946,0.765781616121193,0.640428374484105,0.0565828664200837,-0.0151126699874205
2020-06-17 13:14:10.3970,0.0895843505859375,-1.00393676757812,-0.160293579101562,0.3545982837677,-0.285262107849121,-0.163583070039749,0.764808578417934,0.64162290365521,0.0557213557240474,-0.01682315070583
2020-06-17 13:14:10.4069,0.066497802734375,-1.00193786621094,-0.16473388671875,0.38536873459816,-0.254384607076645,-0.196874707937241,0.763681879534113,0.64296991492158,0.0550812645131961,-0.0185938074801392
2020-06-17 13:14:10.4170,0.0575408935546875,-0.990463256835938,-0.17388916015625,0.3984035551548,-0.20919369161129,-0.230480343103409,0.762454213884769,0.644405425759241,0.0546741391096236,-0.0203950360144785
2020-06-17 13:14:10.4270,0.0560760498046875,-0.979110717773438,-0.180740356445312,0.398989737033844,-0.160079151391983,-0.256238698959351,0.761180099365348,0.645862925041967,0.0545384687249898,-0.0221696597972589
2020-06-17 13:14:10.4370,0.0505523681640625,-0.972000122070312,-0.182037353515625,0.380416840314865,-0.114001668989658,-0.26400899887085,0.759902818283672,0.647294703286629,0.0546604739610015,-0.0238643342242623
2020-06-17 13:14:10.4470,0.0499725341796875,-0.976593017578125,-0.184310913085938,0.347416549921036,-0.0536744147539139,-0.24574638903141,0.758676664703818,0.648646224215396,0.0549857517406529,-0.0253842736850254
2020-06-17 13:14:10.4570,0.063629150390625,-0.985931396484375,-0.18414306640625,0.306448876857758,0.00361124635674059,-0.207595273852348,0.757545863856992,0.649877165101746,0.055452689763514,-0.0266258076022809
2020-06-17 13:14:10.4670,0.0993804931640625,-0.993118286132812,-0.178817749023438,0.262856125831604,0.0544070489704609,-0.159398972988129,0.756540497115844,0.650964533266873,0.0559892374240613,-0.0275110513253425
2020-06-17 13:14:10.4770,0.142410278320312,-0.99127197265625,-0.173080444335938,0.214777544140816,0.0962245389819145,-0.102122373878956,0.755667927827212,0.65190563459024,0.0565632989741397,-0.0280289074347728
2020-06-17 13:14:10.4870,0.1851806640625,-0.976409912109375,-0.1617431640625,0.170509412884712,0.109453521668911,-0.0528959706425667,0.754949608553056,0.65268374116465,0.0570894200473175,-0.0282102939290838
2020-06-17 13:14:10.4970,0.236404418945312,-0.940444946289062,-0.147003173828125,0.135112017393112,0.125045791268349,-0.0225788112729788,0.754374701250306,0.653311312768884,0.0575329850378026,-0.0281619309414103
2020-06-17 13:14:10.5070,0.26666259765625,-0.890716552734375,-0.1265869140625,0.128883674740791,0.121268905699253,-0.0214557573199272,0.753872266446761,0.653861645702236,0.0579424246487535,-0.0280040994822367
2020-06-17 13:14:10.5170,0.27484130859375,-0.85906982421875,-0.098907470703125,0.164451792836189,0.131197169423103,-0.0423056446015835,0.753374422476235,0.654404378595302,0.0583559040872411,-0.0278653421306177
2020-06-17 13:14:10.5270,0.289474487304688,-0.851608276367188,-0.0498809814453125,0.303454697132111,0.0904665142297745,-0.102225705981255,0.752634429680867,0.655208256031788,0.058866803800467,-0.0278972381617972
2020-06-17 13:14:10.5370,0.285293579101562,-0.897048950195312,-0.0160675048828125,0.40971240401268,0.00628985371440649,-0.170509681105614,0.751471802391344,0.65647814612345,0.0593384190918488,-0.0283817880462648
2020-06-17 13:14:10.5470,0.27215576171875,-0.99114990234375,-0.0234527587890625,0.463057398796082,-0.0375811979174614,-0.274506121873856,0.750017463261839,0.658051400343162,0.0598051195039879,-0.029419500162196
2020-06-17 13:14:10.5570,0.27386474609375,-1.04240417480469,-0.0099639892578125,0.45042496919632,-0.0364791825413704,-0.331983000040054,0.748446387549699,0.659711588705262,0.0604382017874537,-0.0309167989365653
2020-06-17 13:14:10.5669,0.28887939453125,-1.07293701171875,0.0124359130859375,0.421139776706696,-0.0163339655846357,-0.380322843790054,0.746922085064538,0.661279570338817,0.0612732015072148,-0.0325933041038791
2020-06-17 13:14:10.5770,0.307022094726562,-1.08628845214844,0.027252197265625,0.385208934545517,-0.00282561383210123,-0.41482862830162,0.745475781076988,0.662719575025404,0.0623570873850536,-0.0343543062607272
2020-06-17 13:14:10.5870,0.302017211914062,-1.09812927246094,0.02288818359375,0.342574656009674,-0.00250976299867034,-0.429950833320618,0.74415093028101,0.663996601315688,0.0635644326470013,-0.0361589450259096
2020-06-17 13:14:10.5970,0.283935546875,-1.11373901367188,0.0145416259765625,0.301184087991714,-0.0172322504222393,-0.449559420347214,0.742956690785499,0.665105679223394,0.0648363223358539,-0.038026864028073
2020-06-17 13:14:10.6070,0.255966186523438,-1.14669799804688,0.01068115234375,0.268805086612701,-0.0501920655369759,-0.472505748271942,0.741880846355266,0.666064891300796,0.0660850651970233,-0.0400391626480675
2020-06-17 13:14:10.6170,0.221481323242188,-1.17283630371094,0.0010528564453125,0.231871053576469,-0.0773190259933472,-0.483411133289337,0.740927096458233,0.666871254787071,0.0672823199324659,-0.0422238877555692
2020-06-17 13:14:10.6270,0.1968994140625,-1.16148376464844,-0.008331298828125,0.191565707325935,-0.0803909823298454,-0.466307252645493,0.740089669306002,0.667538926007474,0.0684141119807045,-0.04448115256165
2020-06-17 13:14:10.6370,0.182952880859375,-1.1165771484375,-0.020965576171875,0.143408820033073,-0.0663768947124481,-0.430483460426331,0.739397000665001,0.668048458565954,0.0695002989552778,-0.0466158863519836
2020-06-17 13:14:10.6470,0.175155639648438,-1.07965087890625,-0.03411865234375,0.104283794760704,-0.0540312752127647,-0.384659260511398,0.738861112734185,0.668398589827808,0.0705117846157343,-0.0485352391124607
2020-06-17 13:14:10.6570,0.17431640625,-1.06137084960938,-0.0413360595703125,0.074230819940567,-0.0446265898644924,-0.339919477701187,0.738452023224097,0.668626905127746,0.0714293595943437,-0.050244579045623
2020-06-17 13:14:10.6670,0.184600830078125,-1.05262756347656,-0.03814697265625,0.0465930700302124,-0.0431344211101532,-0.296363234519958,0.738140060826067,0.668769899246859,0.0722349928879284,-0.0517511185146507
2020-06-17 13:14:10.6770,0.195785522460938,-1.04904174804688,-0.0325775146484375,0.00898417364805937,-0.0665292292833328,-0.249273747205734,0.737942148199842,0.668811956034963,0.0728696988842549,-0.0531221268343761
2020-06-17 13:14:10.6870,0.193740844726562,-1.04519653320312,-0.0463409423828125,-0.0363343060016632,-0.056432381272316,-0.193504482507706,0.737892503736382,0.668723073079509,0.0732913430119706,-0.0543367601192121
2020-06-17 13:14:10.6969,0.1904296875,-1.06520080566406,-0.053955078125,-0.0917906388640404,-0.0245945584028959,-0.141977116465569,0.738019686669606,0.668472258852029,0.0736079170203454,-0.0552598930987716
2020-06-17 13:14:10.7070,0.185348510742188,-1.06291198730469,-0.0443878173828125,-0.14977990090847,0.0212038215249777,-0.10545851290226,0.73833382243301,0.668040439368346,0.0739183184706725,-0.0558678817790208
2020-06-17 13:14:10.7170,0.175430297851562,-1.01661682128906,-0.056396484375,-0.187058299779892,0.0579724907875061,-0.0780127793550491,0.738810334788256,0.667443907995291,0.0742969180793585,-0.0561950785562898
2020-06-17 13:14:10.7270,0.159255981445312,-0.954086303710938,-0.0823974609375,-0.214387655258179,0.0761309862136841,-0.0629267692565918,0.739398780868708,0.666734001253824,0.0747228522925293,-0.0563179346851629
2020-06-17 13:14:10.7360,0.147903442382812,-0.916152954101562,-0.101394653320312,-0.231246799230576,0.116734340786934,-0.0455075651407242,0.740059337126451,0.665949628347616,0.0751912557237736,-0.0562987131141765
2020-06-17 13:14:10.7470,0.149246215820312,-0.913604736328125,-0.0939788818359375,-0.250225812196732,0.156064704060555,-0.0248757880181074,0.740765428346311,0.665120619047236,0.0757520651500343,-0.0560603862868682
2020-06-17 13:14:10.7570,0.162155151367188,-0.94049072265625,-0.0637359619140625,-0.267780035734177,0.151869162917137,-0.00825686473399401,0.741528718167995,0.664234287073048,0.0763565145215496,-0.0556565782168714
2020-06-17 13:14:10.7680,0.183807373046875,-0.95330810546875,-0.0491180419921875,-0.28239494562149,0.121853202581406,0.0210658702999353,0.742791914470771,0.662800804981237,0.0770233098853952,-0.0549788545476305
2020-06-17 13:14:10.7770,0.202316284179688,-0.960891723632812,-0.0527496337890625,-0.30185279250145,0.0798317119479179,0.0631222426891327,0.74373828967854,0.661763666138647,0.0771417119998715,-0.0545102092685953
2020-06-17 13:14:10.7870,0.219985961914062,-0.979141235351562,-0.050933837890625,-0.332705795764923,0.0319771058857441,0.108341388404369,0.744254638607413,0.661209680131748,0.0770856914830111,-0.0542640579021407
2020-06-17 13:14:10.7970,0.242782592773438,-0.98895263671875,-0.0357818603515625,-0.366108745336533,0.00669252360239625,0.146595299243927,0.745389303691932,0.660011144027869,0.0767549763630449,-0.0537470864716321
2020-06-17 13:14:10.8080,0.26275634765625,-0.977325439453125,-0.0247344970703125,-0.366316467523575,-0.0283062066882849,0.178126856684685,0.747237965349578,0.658092270870045,0.0758467733521892,-0.0528890644026988
2020-06-17 13:14:10.8169,0.262405395507812,-0.95849609375,-0.024566650390625,-0.319250166416168,-0.0905741080641747,0.202539786696434,0.748378798982971,0.656943949488829,0.0748802826103872,-0.0524095767871962
2020-06-17 13:14:10.8270,0.261993408203125,-0.933334350585938,-0.0293426513671875,-0.24558313190937,-0.146829128265381,0.221706822514534,0.74931402893504,0.656046299399819,0.0736208938430444,-0.0520740153501985
2020-06-17 13:14:10.8370,0.272232055664062,-0.899520874023438,-0.0238800048828125,-0.168439880013466,-0.186578407883644,0.231550142168999,0.750020835688592,0.655419630921648,0.072131356595935,-0.0518740863162604
2020-06-17 13:14:10.8470,0.289093017578125,-0.876312255859375,-0.012451171875,-0.0987625271081924,-0.236058071255684,0.238938808441162,0.750291465841373,0.655203129715357,0.0713127574048196,-0.0518272681908377
2020-06-17 13:14:10.8580,0.309967041015625,-0.865097045898438,0.001617431640625,-0.0523343123495579,-0.275206804275513,0.255352139472961,0.750852779882437,0.654858566530491,0.0684925646274234,-0.0518568160920547
2020-06-17 13:14:10.8670,0.321945190429688,-0.866729736328125,0.0300140380859375,-0.0378195494413376,-0.313707858324051,0.279618591070175,0.751136390311043,0.654747063109758,0.0663479776489005,-0.0519456673991552
2020-06-17 13:14:10.8770,0.328125,-0.885238647460938,0.06146240234375,-0.0464031845331192,-0.342013537883759,0.311919808387756,0.751447712833482,0.654618475395225,0.063988988810114,-0.0520230320110147
2020-06-17 13:14:10.8870,0.329116821289062,-0.927154541015625,0.0919036865234375,-0.0593346953392029,-0.365525245666504,0.350991308689117,0.751808163899038,0.654450093765274,0.0614152530816659,-0.0520358160721658
2020-06-17 13:14:10.8970,0.319610595703125,-0.968734741210938,0.1243896484375,-0.0672842338681221,-0.429122060537338,0.402351438999176,0.752223525802938,0.654241716909607,0.0584769166951251,-0.0520383829264241
2020-06-17 13:14:10.9070,0.319580078125,-0.968505859375,0.114700317382812,-0.0637416914105415,-0.500749111175537,0.451623380184174,0.752659931749078,0.65402786856598,0.0551212614575144,-0.0520789862981882
2020-06-17 13:14:10.9170,0.317520141601562,-0.93341064453125,0.07684326171875,-0.0331688709557056,-0.550627708435059,0.484742730855942,0.753035234606914,0.653889548233181,0.0514250975186805,-0.0521713858078303
2020-06-17 13:14:10.9260,0.304336547851562,-0.890472412109375,0.047698974609375,0.0166564751416445,-0.581554234027863,0.489559859037399,0.753168164631762,0.653878943278063,0.04949985821933,-0.0522475584027797
2020-06-17 13:14:10.9370,0.279495239257812,-0.852432250976562,0.0212249755859375,0.0767411142587662,-0.588486135005951,0.473209619522095,0.753277213959394,0.654140266405771,0.0436427960372082,-0.0526237318157477
2020-06-17 13:14:10.9470,0.228729248046875,-0.837173461914062,-0.007598876953125,0.136387139558792,-0.570303440093994,0.433476060628891,0.753081574271903,0.654573296902729,0.0399007783849442,-0.0530082008591186
2020-06-17 13:14:10.9570,0.224838256835938,-0.878143310546875,0.00628662109375,0.180099993944168,-0.541958630084991,0.381868809461594,0.752703888338122,0.655172369605515,0.0363966064617149,-0.053491210719493
2020-06-17 13:14:10.9670,0.224838256835938,-0.878143310546875,0.00628662109375,0.220127046108246,-0.527366638183594,0.327052146196365,0.752170937059613,0.65590480839613,0.0331332845592495,-0.0541290053484768
2020-06-17 13:14:10.9770,0.274139404296875,-0.959274291992188,0.00067138671875,0.240865871310234,-0.535476744174957,0.278013229370117,0.751520844822237,0.656729974306859,0.030012842236169,-0.0549671715252889
2020-06-17 13:14:10.9870,0.284820556640625,-0.9798583984375,-0.00762939453125,0.232834309339523,-0.527466773986816,0.237766221165657,0.750864465433059,0.657527023108069,0.0270397144645901,-0.0559430270385996
2020-06-17 13:14:10.9970,0.281112670898438,-0.992385864257812,0.0041656494140625,0.214498981833458,-0.504402995109558,0.22279579937458,0.750246300405648,0.658257654611553,0.0242119953460228,-0.0569309068459301
2020-06-17 13:14:11.0070,0.273056030273438,-0.986251831054688,-0.00299072265625,0.190676733851433,-0.481625765562057,0.238779559731483,0.749694233493106,0.658904944818008,0.0214559707817921,-0.0578141096910861
2020-06-17 13:14:11.0170,0.251296997070312,-0.952651977539062,-0.008209228515625,0.190480470657349,-0.450942933559418,0.253217071294785,0.749155294554099,0.659535364208968,0.0187433715111714,-0.0585502692026151
2020-06-17 13:14:11.0270,0.22821044921875,-0.915145874023438,-0.0440673828125,0.219046056270599,-0.449070483446121,0.240230441093445,0.748534031940981,0.660246225141542,0.0160881169438897,-0.059269703101351
2020-06-17 13:14:11.0370,0.166763305664062,-0.920135498046875,-0.0482025146484375,0.270588338375092,-0.343561619520187,0.166524529457092,0.747730040838984,0.661144629420013,0.0139399377458221,-0.0599436664848547
2020-06-17 13:14:11.0470,0.166763305664062,-0.920135498046875,-0.0482025146484375,0.323254495859146,-0.272284507751465,0.0752569362521172,0.746714310432803,0.66225632944112,0.0123569980658477,-0.0606761675523413
2020-06-17 13:14:11.0570,0.113250732421875,-1.03973388671875,-0.199356079101562,0.205017864704132,-0.0498186871409416,-0.0690962448716164,0.745913624949965,0.663109236873078,0.0119349922821641,-0.061290782723275
2020-06-17 13:14:11.0670,0.1243896484375,-1.09609985351562,-0.303878784179688,0.0376709476113319,0.117280818521976,-0.210525006055832,0.745582948752574,0.663416529342936,0.0127201527833078,-0.0618285762181091
2020-06-17 13:14:11.0770,0.084136962890625,-1.1793212890625,-0.403610229492188,0.00460034422576427,0.15972600877285,-0.385929316282272,0.745408546927753,0.663492770825097,0.0143410946685701,-0.0627516870976235
2020-06-17 13:14:11.0869,0.04888916015625,-1.27726745605469,-0.523574829101562,0.0712467506527901,0.285800337791443,-0.617594003677368,0.744987623838455,0.663766725427496,0.0170587256310914,-0.0641574190770958
2020-06-17 13:14:11.0970,-0.079132080078125,-1.39634704589844,-0.641448974609375,0.111893244087696,0.51744419336319,-0.839947700500488,0.744297409011372,0.66426650792969,0.0212785459575315,-0.0657160320149238
2020-06-17 13:14:11.1070,-0.079132080078125,-1.39634704589844,-0.641448974609375,0.151453167200089,0.624173045158386,-0.840070188045502,0.743445885987312,0.664918288111853,0.0261665279807678,-0.0669865475776759
2020-06-17 13:14:11.1170,-0.324127197265625,-1.25868225097656,-0.424942016601562,0.0445405691862106,0.730282723903656,-0.632116973400116,0.742860959750434,0.665337987626236,0.0308999544889301,-0.0672915263069333
2020-06-17 13:14:11.1270,-0.0786285400390625,-0.918197631835938,-0.395477294921875,-0.198316290974617,0.57623827457428,-0.424203753471375,0.7430672451242,0.664942776353306,0.034646378537573,-0.0670954682025606
2020-06-17 13:14:11.1370,0.1630859375,-0.745880126953125,-0.323806762695312,-0.403558105230331,0.220298543572426,-0.316075414419174,0.744081917477438,0.663654359267635,0.0368595830293283,-0.0674267205718089
2020-06-17 13:14:11.1470,0.39031982421875,-0.769744873046875,-0.287307739257812,-0.518227159976959,-0.0243998821824789,-0.207670375704765,0.745615927316019,0.661795284824697,0.037753375232548,-0.0682537367110572
2020-06-17 13:14:11.1570,0.52166748046875,-0.911651611328125,-0.3294677734375,-0.479427576065063,-0.163016885519028,-0.124439932405949,0.747182838453391,0.659919304537408,0.0377534091375376,-0.0692747971349731
2020-06-17 13:14:11.1670,0.565872192382812,-1.05671691894531,-0.363662719726562,-0.316421359777451,-0.242403581738472,-0.139163210988045,0.748307560332093,0.65852694943705,0.0373505314804873,-0.0705902954597087
2020-06-17 13:14:11.1770,0.517059326171875,-1.14242553710938,-0.368270874023438,-0.154011398553848,-0.265731543302536,-0.205870345234871,0.74886628312732,0.657732171315112,0.0369576224687954,-0.0722621266891202
2020-06-17 13:14:11.1870,0.306289672851562,-1.11122131347656,-0.39129638671875,-0.113125756382942,-0.272120743989944,-0.285161167383194,0.749175330736472,0.657166691554845,0.0367424158493844,-0.0742849796682245
2020-06-17 13:14:11.1970,0.0170745849609375,-1.02861022949219,-0.397232055664062,-0.142755553126335,-0.30347067117691,-0.331469804048538,0.749524823013519,0.656511337324391,0.0366254854795176,-0.0765766117328359
2020-06-17 13:14:11.2070,-0.186676025390625,-1.01811218261719,-0.342819213867188,-0.179193183779716,-0.256701558828354,-0.34341087937355,0.749977732194299,0.655722926114084,0.0366922032333215,-0.0788322751350289
2020-06-17 13:14:11.2170,-0.299591064453125,-1.08009338378906,-0.24969482421875,-0.22761557996273,-0.162300229072571,-0.305247008800507,0.750565434482385,0.654804668890543,0.0370145972367519,-0.0806987840727272
2020-06-17 13:14:11.2270,-0.357589721679688,-1.15472412109375,-0.169647216796875,-0.264794647693634,-0.0626450031995773,-0.221202686429024,0.751293782605309,0.653786780431782,0.0374722648023191,-0.0819532020230826
2020-06-17 13:14:11.2370,-0.338638305664062,-1.17848205566406,-0.144256591796875,-0.281456172466278,0.0282859671860933,-0.101172156631947,0.752116746186455,0.652747109779687,0.0379197707314023,-0.0824845547229462
2020-06-17 13:14:11.2470,-0.277084350585938,-1.14999389648438,-0.163665771484375,-0.267882853746414,0.118306137621403,0.0260039027780294,0.752955238001035,0.651789127980395,0.0382877068618881,-0.0822398547944913
2020-06-17 13:14:11.2570,-0.19598388671875,-1.09794616699219,-0.177001953125,-0.266034871339798,0.183664903044701,0.125917181372643,0.753800624534728,0.650903918365513,0.0385671542436637,-0.0813712610263578
2020-06-17 13:14:11.2670,-0.100372314453125,-1.06689453125,-0.174880981445312,-0.259861946105957,0.243027031421661,0.17811407148838,0.754650775324022,0.650060219443076,0.0388663388880496,-0.0800832448263058
2020-06-17 13:14:11.2780,-0.0109405517578125,-1.05059814453125,-0.172210693359375,-0.272818207740784,0.266128093004227,0.174085780978203,0.755515112360362,0.649207313208392,0.0392807566624662,-0.078637151702461
2020-06-17 13:14:11.2870,-0.0109405517578125,-1.05059814453125,-0.172210693359375,-0.252329170703888,0.297381341457367,0.210933014750481,0.756341055767682,0.648414281335851,0.0397090879254653,-0.0770085414487738
2020-06-17 13:14:11.2970,0.0735626220703125,-1.06517028808594,-0.179977416992188,-0.208213120698929,0.311189293861389,0.214922428131104,0.757029421747339,0.647785996517164,0.0401446229623932,-0.0752872271528279
2020-06-17 13:14:11.3070,0.163162231445312,-1.01628112792969,-0.157989501953125,-0.195850193500519,0.300107628107071,0.184088081121445,0.757652643785603,0.647211608901079,0.0406392569695652,-0.0736753382165562
2020-06-17 13:14:11.3170,0.18243408203125,-0.966384887695312,-0.165390014648438,-0.21235753595829,0.284992843866348,0.141641825437546,0.75829890399427,0.646576482815707,0.0412039863630585,-0.072276244911808
2020-06-17 13:14:11.3270,0.19073486328125,-0.917877197265625,-0.181732177734375,-0.252059131860733,0.248313143849373,0.101580418646336,0.759040378074049,0.645795465298934,0.0418000428239813,-0.0711243831077098
2020-06-17 13:14:11.3370,0.186172485351562,-0.904434204101562,-0.20458984375,-0.308669418096542,0.19298942387104,0.0413836576044559,0.759943170900146,0.64478102305467,0.0423818694898389,-0.0703390819484541
2020-06-17 13:14:11.3469,0.171920776367188,-0.91876220703125,-0.20343017578125,-0.33190044760704,0.165777519345284,0.053872287273407,0.760951938565644,0.643631284782587,0.0428610310379585,-0.0696695662442965
2020-06-17 13:14:11.3570,0.174514770507812,-0.920501708984375,-0.198745727539062,-0.329470306634903,0.124440461397171,0.072574071586132,0.761979158308043,0.642464394346847,0.0431474460179862,-0.0690330515248333
2020-06-17 13:14:11.3670,0.172439575195312,-0.91558837890625,-0.20953369140625,-0.332016289234161,0.0673196539282799,0.0891948565840721,0.763026352032606,0.641274257068476,0.0431683657893336,-0.0685171914205973
2020-06-17 13:14:11.3770,0.159912109375,-0.94818115234375,-0.213241577148438,-0.331611216068268,0.0344623699784279,0.125483885407448,0.764092711044655,0.640074339389445,0.0429384921844667,-0.0679959915915555
2020-06-17 13:14:11.3870,0.123443603515625,-0.987335205078125,-0.208816528320312,-0.333103656768799,0.027060380205512,0.139835923910141,0.765171641217197,0.638865900614879,0.0425934038933519,-0.0674427346220355
2020-06-17 13:14:11.3970,0.0847930908203125,-1.01310729980469,-0.2005615234375,-0.340086191892624,0.0287488233298063,0.169218316674232,0.766273098370953,0.637640554239678,0.0421875135173341,-0.0667852978216025
2020-06-17 13:14:11.4069,0.047149658203125,-1.02125549316406,-0.198989868164062,-0.345296680927277,0.0201380252838135,0.208998218178749,0.767401319224789,0.63640011809918,0.041628388204485,-0.0660089556870803
2020-06-17 13:14:11.4170,0.0234375,-1.01065063476562,-0.208755493164062,-0.340651601552963,-0.0150226252153516,0.249040186405182,0.768538070346698,0.635165351556584,0.0408324757891764,-0.065168393648322
2020-06-17 13:14:11.4270,0.0276947021484375,-0.976303100585938,-0.214584350585938,-0.317575037479401,-0.0435000732541084,0.267123311758041,0.769629162201626,0.633990527101573,0.0398420144574481,-0.0643395532955106
2020-06-17 13:14:11.4370,0.0331878662109375,-0.934173583984375,-0.203582763671875,-0.290865659713745,-0.0769776031374931,0.260810554027557,0.770639986481052,0.632903312036499,0.0387263698292964,-0.0636213574954121
2020-06-17 13:14:11.4470,0.0428466796875,-0.903640747070312,-0.1993408203125,-0.257850706577301,-0.13134790956974,0.249505966901779,0.771550353900606,0.631921673730523,0.0374400813026352,-0.0631133106207902
2020-06-17 13:14:11.4570,0.071502685546875,-0.900497436523438,-0.21954345703125,-0.245039314031601,-0.187025010585785,0.233376801013947,0.772405023566059,0.630988838691532,0.0359654505293236,-0.0628494342444774
2020-06-17 13:14:11.4670,0.0944671630859375,-0.917800903320312,-0.220748901367188,-0.228766337037086,-0.202358961105347,0.218068420886993,0.773211839652021,0.630098126919542,0.034433344428844,-0.062722773104081
2020-06-17 13:14:11.4770,0.089111328125,-0.922531127929688,-0.208297729492188,-0.201333105564117,-0.206225872039795,0.18741862475872,0.773926811720828,0.629298745263088,0.0329737230686495,-0.0627145349733911
2020-06-17 13:14:11.4870,0.071197509765625,-0.936111450195312,-0.2056884765625,-0.18422868847847,-0.199536547064781,0.173764869570732,0.774572326408304,0.62856997779693,0.0315827524625458,-0.0627696098576597
2020-06-17 13:14:11.4970,0.0587921142578125,-0.95050048828125,-0.191726684570312,-0.160915121436119,-0.188396275043488,0.165819332003593,0.775142713852959,0.627925909679698,0.0302523412472888,-0.0628300959942864
2020-06-17 13:14:11.5070,0.041259765625,-0.942428588867188,-0.169342041015625,-0.122988238930702,-0.162194237112999,0.161693558096886,0.775604917304878,0.627413709472908,0.0290222898926662,-0.0628232131248053
2020-06-17 13:14:11.5170,0.0135345458984375,-0.917831420898438,-0.1534423828125,-0.0959971025586128,-0.115994244813919,0.162142306566238,0.775962973033882,0.627032070697358,0.0279434203124693,-0.0627009733468593
2020-06-17 13:14:11.5270,-0.0142822265625,-0.901809692382812,-0.142547607421875,-0.0652983114123344,-0.0727314651012421,0.160040006041527,0.776219802810896,0.626779240904947,0.0270293091147126,-0.0624501188438738
2020-06-17 13:14:11.5370,-0.02545166015625,-0.91143798828125,-0.130783081054688,-0.0406968295574188,-0.0127639984712005,0.153348803520203,0.776383670062923,0.626644932720664,0.0263549389886208,-0.062047903639426
2020-06-17 13:14:11.5470,-0.0296173095703125,-0.939071655273438,-0.118682861328125,-0.0130076771602035,0.0557333044707775,0.138396754860878,0.776454997785382,0.626628191320967,0.0259613125724748,-0.0614878565688449
2020-06-17 13:14:11.5570,-0.0384063720703125,-0.970901489257812,-0.10980224609375,0.0136098181828856,0.107762150466442,0.123872675001621,0.776424048030592,0.626737355431381,0.0258285956391202,-0.0608183244917184
2020-06-17 13:14:11.5669,-0.037841796875,-0.9862060546875,-0.1195068359375,0.0365508198738098,0.125051930546761,0.105248391628265,0.776307250677434,0.626945968586664,0.0258311244412929,-0.0601544514451918
2020-06-17 13:14:11.5770,-0.023773193359375,-0.986618041992188,-0.13116455078125,0.0590683780610561,0.134279772639275,0.09021857380867,0.77611709787168,0.62723831536947,0.0259102037071952,-0.0595231674859633
2020-06-17 13:14:11.5870,-0.013427734375,-0.979248046875,-0.1236572265625,0.0976834148168564,0.145987838506699,0.0862928107380867,0.775813242755923,0.627669091594467,0.0260482867687697,-0.0588796278684603
2020-06-17 13:14:11.5970,-0.0085906982421875,-0.9483642578125,-0.122543334960938,0.140508115291595,0.144594728946686,0.0895013883709908,0.775260727445282,0.628453149144113,0.0257854219358997,-0.0579012592906854
2020-06-17 13:14:11.6070,0.0050201416015625,-0.921234130859375,-0.136322021484375,0.168716311454773,0.140701994299889,0.0913482904434204,0.774594172834148,0.629387117472387,0.0253792323090969,-0.0568473248146566
2020-06-17 13:14:11.6170,0.0150146484375,-0.91973876953125,-0.146652221679688,0.197065129876137,0.134010270237923,0.0851343348622322,0.773805375178807,0.630468906800202,0.0249182768781055,-0.0557967595830545
2020-06-17 13:14:11.6270,0.01519775390625,-0.937210083007812,-0.140167236328125,0.235437825322151,0.15036952495575,0.0761147439479828,0.772857591813083,0.63173903865912,0.0245209118931438,-0.0547325743123888
2020-06-17 13:14:11.6370,0.0191802978515625,-0.95306396484375,-0.126052856445312,0.273804634809494,0.197186574339867,0.0605626814067364,0.771743757353462,0.633207413198983,0.0242927328611805,-0.0535705888146426
2020-06-17 13:14:11.6470,0.016571044921875,-0.949844360351562,-0.1190185546875,0.2993523478508,0.270877569913864,0.0465411357581615,0.7705679274027,0.634743852310865,0.0243767347557194,-0.0522597934795015
2020-06-17 13:14:11.6570,-0.00384521484375,-0.929595947265625,-0.123565673828125,0.305830746889114,0.339876085519791,0.0261533074080944,0.76938867759912,0.636269030125335,0.0248471271303293,-0.050846871673806
2020-06-17 13:14:11.6670,-0.0262603759765625,-0.921371459960938,-0.124893188476562,0.313446074724197,0.382114619016647,0.00353108532726765,0.768152277585219,0.637844187843395,0.0255999985547342,-0.0494116438609202
2020-06-17 13:14:11.6770,-0.0483856201171875,-0.917770385742188,-0.117691040039062,0.334600627422333,0.414141774177551,-0.0302508473396301,0.766869237203807,0.639452121520086,0.026613207952245,-0.0480030673645229
2020-06-17 13:14:11.6870,-0.0582427978515625,-0.922515869140625,-0.114944458007812,0.354784190654755,0.454723030328751,-0.0603469647467136,0.765646677733623,0.640920728325397,0.0282951900679941,-0.0469592067365284
2020-06-17 13:14:11.6969,-0.0565185546875,-0.932723999023438,-0.11279296875,0.379718035459518,0.507354557514191,-0.0926782712340355,0.764330930243091,0.642477487370789,0.0302665938334548,-0.0458785417506913
2020-06-17 13:14:11.7070,-0.07086181640625,-0.937362670898438,-0.120407104492188,0.373641222715378,0.569852828979492,-0.125825837254524,0.762979589749361,0.644049585007758,0.0325642789449127,-0.0447419871488675
2020-06-17 13:14:11.7170,-0.0398406982421875,-0.946548461914062,-0.1240234375,0.365305811166763,0.605942904949188,-0.153670251369476,0.761643175465491,0.645575690545986,0.0351112874917273,-0.043576352917493
2020-06-17 13:14:11.7270,0.0056915283203125,-0.9556884765625,-0.1842041015625,0.348468512296677,0.585637390613556,-0.161216050386429,0.760335009911242,0.64704459931954,0.037677183802196,-0.0424781004215544
2020-06-17 13:14:11.7370,0.043365478515625,-0.951385498046875,-0.248443603515625,0.318024039268494,0.513788998126984,-0.137080356478691,0.759126855358576,0.648387931172694,0.0399559347964465,-0.0415094140832587
2020-06-17 13:14:11.7470,0.10614013671875,-0.972747802734375,-0.25140380859375,0.311684131622314,0.445638716220856,-0.0967981815338135,0.757977881433299,0.649667947923394,0.0418548817011893,-0.0406110523955406
2020-06-17 13:14:11.7560,0.162521362304688,-1.01181030273438,-0.246170043945312,0.320476800203323,0.373685449361801,-0.0569956414401531,0.756823224334472,0.650964777137659,0.0433500713393649,-0.039802479181124
2020-06-17 13:14:11.7680,0.178009033203125,-1.02354431152344,-0.24310302734375,0.322464853525162,0.29994598031044,-0.0437831655144691,0.755668952266774,0.652265395089072,0.0445082129895287,-0.0391574759887789
2020-06-17 13:14:11.7770,0.139450073242188,-1.02015686035156,-0.273345947265625,0.35075643658638,0.200319781899452,-0.0295730717480183,0.754470266416033,0.653622668843502,0.045263876956707,-0.0387711917648411
2020-06-17 13:14:11.7870,0.0883941650390625,-1.02972412109375,-0.326080322265625,0.361040741205215,0.113703392446041,0.0356637202203274,0.753248433132495,0.655031970558268,0.0454848575289222,-0.0384843249332381
2020-06-17 13:14:11.7980,0.135498046875,-1.10107421875,-0.3489990234375,0.305567920207977,0.02590536698699,0.228208675980568,0.752199895197017,0.656315523290215,0.0448604269091381,-0.0378522608494936
2020-06-17 13:14:11.8070,0.360183715820312,-1.25654602050781,-0.383773803710938,0.239216044545174,-0.078609324991703,0.511150062084198,0.751445064035073,0.657378349772109,0.0430082534837496,-0.0365282236154583
2020-06-17 13:14:11.8169,0.48663330078125,-1.3248291015625,-0.395782470703125,0.165273383259773,-0.120968766510487,0.763474225997925,0.75097501535061,0.658213652782675,0.0401017381152574,-0.0343971540941132
2020-06-17 13:14:11.8270,0.410552978515625,-1.18228149414062,-0.329086303710938,0.0957550182938576,-0.0607927776873112,0.857660889625549,0.750748255160341,0.658794784581284,0.0369270803787318,-0.0316682793486695
2020-06-17 13:14:11.8370,0.286895751953125,-0.964126586914062,-0.244827270507812,0.0582566484808922,0.0297400522977114,0.793752789497375,0.75063084606452,0.659210500308159,0.0341975657375501,-0.0287293528913388
2020-06-17 13:14:11.8470,0.150604248046875,-0.779006958007812,-0.218185424804688,0.0730371922254562,0.0486788563430309,0.604592680931091,0.750456160721372,0.659613731686858,0.0321344617536329,-0.0263182859107371
2020-06-17 13:14:11.8580,0.0143585205078125,-0.690200805664062,-0.188674926757812,0.157417848706245,0.0145067712292075,0.38331863284111,0.750016984632821,0.660240837290097,0.0306924747494778,-0.0247897464794405
2020-06-17 13:14:11.8670,-0.0947723388671875,-0.689132690429688,-0.146484375,0.249056160449982,-0.0147989196702838,0.149519190192223,0.74925193483199,0.661166844181857,0.0298748236669969,-0.0242371041172117
2020-06-17 13:14:11.8770,-0.1470947265625,-0.72308349609375,-0.120346069335938,0.250901460647583,0.02637062035501,-0.0182077661156654,0.74839303778318,0.662142117467104,0.0297438812828018,-0.024310055534245
2020-06-17 13:14:11.8870,-0.12713623046875,-0.801773071289062,-0.1187744140625,0.146402224898338,0.128382474184036,-0.11173265427351,0.74778284262405,0.662798921523359,0.0303262669372539,-0.0244689075811983
2020-06-17 13:14:11.8970,-0.08087158203125,-0.956619262695312,-0.158554077148438,-0.0160585958510637,0.183837473392487,-0.112942531704903,0.747658680836466,0.66289695249087,0.0312503877545991,-0.0244446438587209
2020-06-17 13:14:11.9070,0.0004730224609375,-1.16285705566406,-0.247650146484375,-0.162278920412064,0.154684111475945,-0.0443938300013542,0.748040574878608,0.662439493491844,0.0319658506038658,-0.0242363403326945
2020-06-17 13:14:11.9170,0.138275146484375,-1.34553527832031,-0.286270141601562,-0.225709021091461,0.152759447693825,0.0413069613277912,0.748704600306789,0.661687130773969,0.0323671536026326,-0.023747206472068
2020-06-17 13:14:11.9270,0.2716064453125,-1.39266967773438,-0.238388061523438,-0.191732943058014,0.196754604578018,0.0971004515886307,0.749317678407585,0.661006310349455,0.0326946007493517,-0.0229071514140845
2020-06-17 13:14:11.9370,0.334701538085938,-1.28512573242188,-0.184539794921875,-0.142965137958527,0.20910207927227,0.123373068869114,0.749767598180193,0.660515963660134,0.0329902921501057,-0.0218826664984258
2020-06-17 13:14:11.9470,0.343307495117188,-1.10897827148438,-0.181350708007812,-0.150710418820381,0.155040442943573,0.132715433835983,0.75021010962046,0.660038647255623,0.0330835388835716,-0.0209584113702119
2020-06-17 13:14:11.9570,0.337753295898438,-0.949569702148438,-0.19451904296875,-0.201292634010315,0.0957963019609451,0.112745992839336,0.750800398789435,0.659392977347612,0.0329992144262282,-0.0202660911260259
2020-06-17 13:14:11.9670,0.324417114257812,-0.832870483398438,-0.192138671875,-0.23353685438633,0.0695947930216789,0.0750984773039818,0.751517137428091,0.658594374262588,0.0329099399306195,-0.019808538444851
2020-06-17 13:14:11.9770,0.302886962890625,-0.76605224609375,-0.182540893554688,-0.224488496780396,0.0465752258896828,0.0259964466094971,0.752229507010484,0.657787202296447,0.0329041934399191,-0.0195979420308863
2020-06-17 13:14:11.9870,0.284744262695312,-0.751754760742188,-0.185623168945312,-0.178028583526611,-0.00606827903538942,-0.0348187014460564,0.752812747846299,0.657114193188251,0.0329138052670347,-0.0197632288227798
2020-06-17 13:14:11.9970,0.272109985351562,-0.780181884765625,-0.194534301757812,-0.123880133032799,-0.0763778612017632,-0.0994131416082382,0.753229301655282,0.65661943103324,0.0328681685848029,-0.0204016031566492
2020-06-17 13:14:12.0070,0.245285034179688,-0.847122192382812,-0.192428588867188,-0.104292050004005,-0.131891191005707,-0.144723102450371,0.75356055086108,0.656212101212421,0.0327575885919887,-0.0214269642731445
2020-06-17 13:14:12.0170,0.200180053710938,-0.933334350585938,-0.18408203125,-0.135095775127411,-0.148710384964943,-0.158374726772308,0.753958177575526,0.655722589926594,0.0326180784954278,-0.0226055851996373
2020-06-17 13:14:12.0270,0.15289306640625,-1.00892639160156,-0.161422729492188,-0.192497536540031,-0.103307746350765,-0.152647331357002,0.754520773815326,0.655038567775306,0.0326070177231435,-0.0236571131628428
2020-06-17 13:14:12.0370,0.123764038085938,-1.07334899902344,-0.153091430664062,-0.236418396234512,-0.119138643145561,-0.143787533044815,0.755236150603927,0.654178166715793,0.0325645426474129,-0.0246745531973995
2020-06-17 13:14:12.0470,0.102798461914062,-1.12019348144531,-0.15936279296875,-0.22467252612114,-0.148445934057236,-0.115347631275654,0.755959399191162,0.653314029921426,0.0323421800684521,-0.0256933546035358
2020-06-17 13:14:12.0570,0.0646514892578125,-1.142333984375,-0.163604736328125,-0.170980796217918,-0.128298580646515,-0.0634455531835556,0.756537087316049,0.652629162639895,0.032000239951154,-0.0265103042299927
2020-06-17 13:14:12.0670,0.0335845947265625,-1.13412475585938,-0.166336059570312,-0.14021623134613,-0.100083187222481,-0.0221021063625813,0.756994593262444,0.652094123568845,0.0316136466646823,-0.0270742889651199
2020-06-17 13:14:12.0770,0.0251007080078125,-1.10943603515625,-0.1611328125,-0.131357759237289,-0.0820250958204269,-0.0120097910985351,0.757408104624615,0.651613132348111,0.0312466406531275,-0.0275124744129945
2020-06-17 13:14:12.0869,0.0220947265625,-1.077392578125,-0.161285400390625,-0.121422834694386,-0.0736731588840485,-0.0309294201433659,0.757789866668601,0.651163511744981,0.0309528933041916,-0.0279735114425723
2020-06-17 13:14:12.0970,0.0292816162109375,-1.03836059570312,-0.165359497070312,-0.120830811560154,-0.0506333485245705,-0.0592401549220085,0.75815358524024,0.650724772608114,0.0308144202283457,-0.0284760075761786
2020-06-17 13:14:12.1070,0.049407958984375,-0.985885620117188,-0.169891357421875,-0.129210710525513,-0.0320412889122963,-0.0807326659560204,0.758534660749074,0.650256486313851,0.0308372921010095,-0.0289953766129957
2020-06-17 13:14:12.1170,0.074737548828125,-0.920883178710938,-0.190460205078125,-0.1588154733181,-0.0220302008092403,-0.080723337829113,0.758997937317707,0.649689053410855,0.0309273401576598,-0.0294917726891209
2020-06-17 13:14:12.1270,0.104812622070312,-0.865493774414062,-0.209335327148438,-0.196111187338829,-0.0180533025413752,-0.0584326833486557,0.75958223212105,0.648984967952114,0.0309827423235617,-0.0298900267030482
2020-06-17 13:14:12.1370,0.134048461914062,-0.82977294921875,-0.213851928710938,-0.211800396442413,0.0128971561789513,-0.00416917866095901,0.760232923821236,0.648216765070038,0.0309698105991539,-0.0300299492474149
2020-06-17 13:14:12.1470,0.137908935546875,-0.802581787109375,-0.203781127929688,-0.201013535261154,0.0672378912568092,0.0648429095745087,0.760865703425506,0.647488207636575,0.0309291466968066,-0.0297622278566786
2020-06-17 13:14:12.1570,0.116592407226562,-0.785232543945312,-0.184768676757812,-0.186393052339554,0.111038371920586,0.13800074160099,0.761450949948217,0.646835688348814,0.0308414876141638,-0.0290662302856835
2020-06-17 13:14:12.1670,0.0923004150390625,-0.79534912109375,-0.167236328125,-0.170840188860893,0.143015205860138,0.219273224473,0.761997194319676,0.646250896898894,0.0306293195153714,-0.02796245504854
2020-06-17 13:14:12.1770,0.0669708251953125,-0.839523315429688,-0.140884399414062,-0.156694799661636,0.147521808743477,0.284801632165909,0.762505666316279,0.645729386552176,0.0302204877519525,-0.0265591848246856
2020-06-17 13:14:12.1870,0.0771026611328125,-0.910186767578125,-0.126785278320312,-0.129420846700668,0.109484151005745,0.333654403686523,0.762944117891948,0.645303105270143,0.0295288679023763,-0.0250643424647789
2020-06-17 13:14:12.1970,0.124237060546875,-0.996505737304688,-0.136398315429688,-0.0768329948186874,0.042086198925972,0.344703853130341,0.763234504018075,0.645056372517199,0.0285356986578778,-0.02368717064875
2020-06-17 13:14:12.2070,0.18377685546875,-1.07180786132812,-0.143447875976562,-0.0107288109138608,0.00976820848882198,0.325607120990753,0.763314645927212,0.645051980193911,0.0274212881844681,-0.0225114885166321
2020-06-17 13:14:12.2170,0.237747192382812,-1.11997985839844,-0.123703002929688,0.0249032191932201,0.0312572568655014,0.276044636964798,0.763257466268496,0.645194520991844,0.0264737608390476,-0.021475806260493
2020-06-17 13:14:12.2270,0.276412963867188,-1.12841796875,-0.111068725585938,-0.00159150501713157,0.0909786447882652,0.220668196678162,0.763229350166474,0.645283050682755,0.0259321999560777,-0.0204515170942535
2020-06-17 13:14:12.2370,0.2784423828125,-1.10578918457031,-0.158660888671875,-0.0809137597680092,0.167902991175652,0.104549579322338,0.763401937390225,0.645103116354362,0.0259894230329998,-0.0195959472634715
2020-06-17 13:14:12.2470,0.250289916992188,-1.09854125976562,-0.16693115234375,-0.123382918536663,0.204184830188751,-0.030156571418047,0.763723095697571,0.644710896275619,0.0266512234236781,-0.0190946487694433
2020-06-17 13:14:12.2570,0.221343994140625,-1.0841064453125,-0.164276123046875,-0.136225745081902,0.205046355724335,-0.124893464148045,0.764097141739963,0.64422863228773,0.0276723163378459,-0.0189544251824722
2020-06-17 13:14:12.2670,0.194137573242188,-1.03125,-0.156280517578125,-0.144953191280365,0.202679067850113,-0.173483639955521,0.764489809951634,0.643707563803468,0.028869301647761,-0.0190385452356442
2020-06-17 13:14:12.2770,0.163604736328125,-0.98223876953125,-0.155059814453125,-0.156185880303383,0.211410254240036,-0.185477986931801,0.765125310778166,0.642856330892261,0.0308091892769355,-0.0192299374531513
2020-06-17 13:14:12.2870,0.13787841796875,-0.950637817382812,-0.174148559570312,-0.165861144661903,0.216554149985313,-0.177586242556572,0.765353393916722,0.642552459922977,0.0314520729724636,-0.0192687771490882
2020-06-17 13:14:12.2970,0.108657836914062,-0.936508178710938,-0.20855712890625,-0.166536256670952,0.207168892025948,-0.148812919855118,0.7658110677942,0.641946662922623,0.0326455441461533,-0.0192914191757974
2020-06-17 13:14:12.3070,0.0682525634765625,-0.944244384765625,-0.247726440429688,-0.146621137857437,0.188876181840897,-0.113646402955055,0.76622308803638,0.641403686403961,0.0336619790489385,-0.0192447809525625
2020-06-17 13:14:12.3170,0.04205322265625,-0.96820068359375,-0.266067504882812,-0.126210927963257,0.19125597178936,-0.0935469940304756,0.76656776924249,0.640945634734851,0.0346006020323003,-0.0191140475026407
2020-06-17 13:14:12.3270,0.030242919921875,-1.0001220703125,-0.276321411132812,-0.117918916046619,0.204065248370171,-0.0758340433239937,0.767046388982727,0.640306540274726,0.0360199873594678,-0.0187064732270008
2020-06-17 13:14:12.3370,0.0383758544921875,-1.01002502441406,-0.277801513671875,-0.134685382246971,0.232925131917,-0.0629251673817635,0.767227148380694,0.640067685872017,0.0365150199068493,-0.0185071232576032
2020-06-17 13:14:12.3469,0.07269287109375,-0.999557495117188,-0.266204833984375,-0.161126032471657,0.232245221734047,-0.0394435450434685,0.767774275672418,0.639321307686624,0.0382552014557316,-0.0180960414218275
2020-06-17 13:14:12.3570,0.117401123046875,-0.972854614257812,-0.247406005859375,-0.196931436657906,0.213780462741852,0.00316303642466664,0.768272783646747,0.638677176998104,0.0391777707789693,-0.0177058116504591
2020-06-17 13:14:12.3670,0.151168823242188,-0.935272216796875,-0.227783203125,-0.228631049394608,0.18475253880024,0.0649885833263397,0.768951527096051,0.63784270572787,0.0397113414347996,-0.0171242835718853
2020-06-17 13:14:12.3770,0.169677734375,-0.907730102539062,-0.215560913085938,-0.251128643751144,0.13934750854969,0.11516360938549,0.769809650418646,0.636820133491849,0.039796632229765,-0.0164148641454843
2020-06-17 13:14:12.3870,0.177017211914062,-0.901016235351562,-0.213485717773438,-0.240679979324341,0.0841244608163834,0.155340313911438,0.770730988208621,0.635749975075652,0.0393976601561347,-0.0156056842366205
2020-06-17 13:14:12.3970,0.170486450195312,-0.915908813476562,-0.215011596679688,-0.209620609879494,0.0534935854375362,0.179927423596382,0.771692571311685,0.634647182758925,0.0387022871563971,-0.0146854270412487
2020-06-17 13:14:12.4069,0.1568603515625,-0.941970825195312,-0.228286743164062,-0.195243790745735,0.045205295085907,0.187097981572151,0.772607129338452,0.633603309954263,0.0378935196676662,-0.0137531988131833
2020-06-17 13:14:12.4170,0.134429931640625,-0.976593017578125,-0.239608764648438,-0.188485756516457,0.016080966219306,0.182861432433128,0.773192539033331,0.632941302165204,0.0372228805131212,-0.0131553321095624
2020-06-17 13:14:12.4270,0.104598999023438,-1.01611328125,-0.243240356445312,-0.196693360805511,-0.0342109687626362,0.173824518918991,0.773807415295271,0.632247500201755,0.0363635111047923,-0.0127623502073607
2020-06-17 13:14:12.4370,0.0758056640625,-1.05653381347656,-0.243606567382812,-0.199513107538223,-0.096686065196991,0.166505888104439,0.774628302029277,0.63129206357131,0.0354890888791035,-0.0127219785272377
2020-06-17 13:14:12.4470,0.058502197265625,-1.08720397949219,-0.239410400390625,-0.197017729282379,-0.14550207555294,0.175659969449043,0.775361714145674,0.630437071203888,0.0345818359358587,-0.0129386286851306
2020-06-17 13:14:12.4570,0.0389556884765625,-1.09165954589844,-0.2259521484375,-0.169246286153793,-0.193724721670151,0.197042763233185,0.77589433013002,0.629863979693163,0.0330694981728363,-0.0128749309814022
2020-06-17 13:14:12.4670,0.0128631591796875,-1.06002807617188,-0.210769653320312,-0.144384071230888,-0.208553209900856,0.218702509999275,0.776342193336691,0.629396577682167,0.0314451225697915,-0.0128043396441864
2020-06-17 13:14:12.4770,-0.0193328857421875,-1.00189208984375,-0.197036743164062,-0.121293671429157,-0.223836824297905,0.223978504538536,0.776744207160577,0.628982207058792,0.0297783191908957,-0.0127699472240017
2020-06-17 13:14:12.4870,-0.0458221435546875,-0.93939208984375,-0.192550659179688,-0.116719424724579,-0.225914895534515,0.207384347915649,0.777128090072362,0.62858025856253,0.0281863729021349,-0.0128186796733006
2020-06-17 13:14:12.4970,-0.0620574951171875,-0.895370483398438,-0.177658081054688,-0.107468672096729,-0.22234545648098,0.171960577368736,0.777448035448694,0.628244652510961,0.0267144982966084,-0.0130209196721659
2020-06-17 13:14:12.5070,-0.0666046142578125,-0.874114990234375,-0.1610107421875,-0.0722715333104134,-0.219838082790375,0.124865770339966,0.777636947104143,0.62805472266134,0.0254886343928754,-0.0133556489217963
2020-06-17 13:14:12.5170,-0.0722198486328125,-0.867874145507812,-0.136123657226562,-0.0252883117645979,-0.157158195972443,0.0649406537413597,0.777680948561546,0.628023580986146,0.0246938837469918,-0.0137454019672745
2020-06-17 13:14:12.5270,-0.079071044921875,-0.8624267578125,-0.115554809570312,0.00337076303549111,-0.099459208548069,-0.00186261488124728,0.777633635621223,0.628085784256993,0.0243372993469464,-0.0142081745939973
2020-06-17 13:14:12.5370,-0.081817626953125,-0.864761352539062,-0.116928100585938,0.0200168509036303,-0.0429693050682545,-0.0650679469108582,0.777533062448208,0.628196521097369,0.0243772853491066,-0.0147382373464735
2020-06-17 13:14:12.5470,-0.0699615478515625,-0.8873291015625,-0.126388549804688,0.0275594554841518,0.0122694494202733,-0.116104498505592,0.777407757790986,0.628322991157559,0.0247764958196028,-0.0152814320045526
2020-06-17 13:14:12.5570,-0.0534210205078125,-0.920196533203125,-0.117645263671875,0.0318572670221329,0.0669888854026794,-0.15929964184761,0.777195469644971,0.628560162940252,0.0252365697792918,-0.0155704551517241
2020-06-17 13:14:12.5669,-0.0479278564453125,-0.94781494140625,-0.10479736328125,0.0499667599797249,0.127280190587044,-0.204875916242599,0.776953425537675,0.628825399959371,0.0259485953449027,-0.0157689984094058
2020-06-17 13:14:12.5770,-0.0463409423828125,-0.964065551757812,-0.107040405273438,0.0672940835356712,0.177070111036301,-0.254763305187225,0.776630402599492,0.629178820041656,0.0269053625724434,-0.015979099911616
2020-06-17 13:14:12.5870,-0.03662109375,-0.969253540039062,-0.125198364257812,0.0859316885471344,0.206338256597519,-0.310407400131226,0.776255476327998,0.629546343960195,0.0286439584648937,-0.0166841218110653
2020-06-17 13:14:12.5970,-0.02484130859375,-0.970504760742188,-0.151107788085938,0.110382966697216,0.240728452801704,-0.353221714496613,0.775789531547757,0.630006847191492,0.0306169617970643,-0.0174521311897475
2020-06-17 13:14:12.6070,-0.0165252685546875,-0.9638671875,-0.178573608398438,0.140480682253838,0.263132840394974,-0.381498634815216,0.775216803995682,0.63058267853054,0.0327161191266881,-0.0182769770273516
2020-06-17 13:14:12.6170,0.0023651123046875,-0.949844360351562,-0.20623779296875,0.175775825977325,0.25823900103569,-0.397186785936356,0.77453441638204,0.63128094096803,0.0348178766266118,-0.0191970538746525
2020-06-17 13:14:12.6270,0.0342254638671875,-0.93682861328125,-0.222427368164062,0.206297516822815,0.229624673724174,-0.412196069955826,0.773746623368375,0.632099120509383,0.0367988940448301,-0.0203151685786954
2020-06-17 13:14:12.6370,0.07281494140625,-0.934188842773438,-0.2442626953125,0.236115321516991,0.160797670483589,-0.425164878368378,0.772886223399444,0.633000306489488,0.0385518878087234,-0.0217082843620249
2020-06-17 13:14:12.6470,0.120849609375,-0.94866943359375,-0.272689819335938,0.252170205116272,0.0879642069339752,-0.436712861061096,0.772006169641844,0.633921008600845,0.0400804833244625,-0.0233277462669048
2020-06-17 13:14:12.6570,0.1590576171875,-0.971664428710938,-0.279876708984375,0.24306857585907,0.0594540052115917,-0.435954421758652,0.771189704121845,0.634757380165808,0.0415434069548292,-0.0249730638906638
2020-06-17 13:14:12.6670,0.176605224609375,-1.00083923339844,-0.2742919921875,0.192372381687164,0.0625448673963547,-0.42317920923233,0.770559745825647,0.635365197144419,0.0429433857749491,-0.0265444907453771
2020-06-17 13:14:12.6770,0.203323364257812,-1.04652404785156,-0.286285400390625,0.122454807162285,0.0464684329926968,-0.383747935295105,0.77015027722771,0.635721150546394,0.044092204629327,-0.0279829720540172
2020-06-17 13:14:12.6870,0.215560913085938,-1.10176086425781,-0.308639526367188,0.0614220798015594,0.00286023505032063,-0.306655287742615,0.769939741025725,0.635869398084919,0.0448178986708912,-0.0292277218935643
2020-06-17 13:14:12.6969,0.210464477539062,-1.1318359375,-0.313674926757812,0.00743448035791516,-0.0399514101445675,-0.212861940264702,0.769931283232582,0.635813583573252,0.0450968127850099,-0.0302189265230179
2020-06-17 13:14:12.7070,0.182891845703125,-1.12460327148438,-0.29876708984375,-0.0533630885183811,-0.0672663897275925,-0.122816734015942,0.770119475338215,0.635555166523006,0.0450315952178819,-0.0309480119368113
2020-06-17 13:14:12.7170,0.150741577148438,-1.08859252929688,-0.2838134765625,-0.0963390544056892,-0.0868544727563858,-0.0536666885018349,0.770424755892954,0.635180582584638,0.0447039323340213,-0.0315100213995017
2020-06-17 13:14:12.7270,0.122406005859375,-1.04249572753906,-0.274215698242188,-0.103927463293076,-0.103375121951103,-0.0158487372100353,0.770744905747386,0.634800888008879,0.0442378277645862,-0.0319865196959986
2020-06-17 13:14:12.7370,0.092987060546875,-0.998001098632812,-0.254470825195312,-0.0957845821976662,-0.100141517817974,-0.00260031037032604,0.771039616110373,0.634453389361593,0.043788056696219,-0.0323946478098515
2020-06-17 13:14:12.7470,0.0477142333984375,-0.949249267578125,-0.236724853515625,-0.0938303545117378,-0.0669316276907921,-0.00426079146564007,0.77134310973803,0.634087731277547,0.0435181155889308,-0.0326914318828097
2020-06-17 13:14:12.7560,0.002716064453125,-0.915252685546875,-0.230819702148438,-0.119719207286835,-0.0071074441075325,-0.0135773280635476,0.7717097587177,0.633635489941082,0.0434922924728489,-0.0328410517866079
2020-06-17 13:14:12.7670,-0.03216552734375,-0.909698486328125,-0.228744506835938,-0.143138244748116,0.0382075719535351,-0.0180873908102512,0.772121707098442,0.633122176245557,0.0436527177144078,-0.0328453894728545
2020-06-17 13:14:12.7770,-0.0460052490234375,-0.927001953125,-0.223526000976562,-0.141641825437546,0.0904111191630363,-0.0166367664933205,0.772490835734053,0.632654494030089,0.0440338882308574,-0.0326682809114285
2020-06-17 13:14:12.7870,-0.0321197509765625,-0.946212768554688,-0.213119506835938,-0.112179800868034,0.148719966411591,-0.0175957717001438,0.772733274679948,0.632335178751556,0.0446047973659692,-0.0323406859479299
2020-06-17 13:14:12.7970,0.0035552978515625,-0.94708251953125,-0.187118530273438,-0.0598153956234455,0.181925594806671,-0.0188690293580294,0.772968037233004,0.632012069322917,0.0453402655657844,-0.0320221480345252
2020-06-17 13:14:12.8070,0.0511932373046875,-0.927566528320312,-0.149978637695312,-0.000840227294247597,0.197810545563698,-0.0176173429936171,0.773048882136482,0.63188482426609,0.0460157896606263,-0.0316155308615517
2020-06-17 13:14:12.8169,0.102828979492188,-0.89532470703125,-0.125564575195312,0.0319336988031864,0.179959118366241,-0.0100688794627786,0.773031018871451,0.631894205674505,0.0464581799618875,-0.031215288116262
2020-06-17 13:14:12.8270,0.161544799804688,-0.8726806640625,-0.122406005859375,0.0485283881425858,0.119672335684299,-0.00294465711340308,0.772988069780726,0.631961773094504,0.0464976420972673,-0.0308501313338037
2020-06-17 13:14:12.8370,0.21649169921875,-0.866180419921875,-0.12451171875,0.0520091392099857,0.0663148388266563,0.00308820162899792,0.772964351014179,0.632035107912439,0.0461410679611001,-0.0304751747287811
2020-06-17 13:14:12.8470,0.260818481445312,-0.880386352539062,-0.139907836914062,0.0557104013860226,0.0278441477566957,0.00777909345924854,0.772947300645076,0.63212121896472,0.0454983358712164,-0.0300854847558937
2020-06-17 13:14:12.8570,0.282821655273438,-0.918243408203125,-0.160751342773438,0.0584281571209431,0.000541953253559768,0.0088408961892128,0.772723330608304,0.632401621362162,0.0453240089486332,-0.0302089034051725
2020-06-17 13:14:12.8670,0.280319213867188,-0.979507446289062,-0.174209594726562,0.0682893097400665,-0.0107788778841496,0.00710957497358322,0.772498358857009,0.632681685480525,0.0451419109060008,-0.0303706815943361
2020-06-17 13:14:12.8770,0.259918212890625,-1.0411376953125,-0.180740356445312,0.0573839321732521,-0.0122508071362972,0.00163784401956946,0.772315292412308,0.632909233689449,0.0449758968511479,-0.0305312908203996
2020-06-17 13:14:12.8870,0.226364135742188,-1.07850646972656,-0.189376831054688,0.0347473286092281,-0.00912159308791161,0.00559183908626437,0.77220913865452,0.633045838575391,0.0447649964502716,-0.0306937702739708
2020-06-17 13:14:12.8970,0.181503295898438,-1.07936096191406,-0.202835083007812,0.00882678106427193,-0.0313440747559071,0.0154878795146942,0.772207541560913,0.633062783744401,0.0444333441761534,-0.0308658795365541
2020-06-17 13:14:12.9070,0.144744873046875,-1.0501708984375,-0.217086791992188,-0.0251109451055527,-0.0686206072568893,0.0343641005456448,0.772309785641974,0.63296517677412,0.0438695890328195,-0.0311149345338633
2020-06-17 13:14:12.9170,0.12518310546875,-1.01663208007812,-0.237930297851562,-0.0423453263938427,-0.129187807440758,0.0483006872236729,0.772453240341301,0.632829212726379,0.043012971198219,-0.0315129071181396
2020-06-17 13:14:12.9270,0.109024047851562,-0.993972778320312,-0.245208740234375,-0.0360884964466095,-0.19656366109848,0.05258384719491,0.772570805073298,0.632728179427429,0.0419362412721271,-0.0321053543013235
2020-06-17 13:14:12.9370,0.09765625,-0.984100341796875,-0.238204956054688,-0.0153587162494659,-0.231424704194069,0.035362783819437,0.772513229771362,0.632751157738732,0.0415741065002542,-0.0334794844228195
2020-06-17 13:14:12.9470,0.099029541015625,-0.9783935546875,-0.235977172851562,-0.00708826957270503,-0.246464639902115,-0.00626508658751845,0.772449618283303,0.632769330782009,0.0412417074847607,-0.0349811777876209
2020-06-17 13:14:12.9570,0.1131591796875,-0.974517822265625,-0.23291015625,-0.010584999807179,-0.232805013656616,-0.0571849942207336,0.772390357988523,0.632771867862215,0.0410171923628297,-0.0364758558391062
2020-06-17 13:14:12.9670,0.128097534179688,-0.980438232421875,-0.222015380859375,-0.0297994408756495,-0.189588844776154,-0.0932082384824753,0.772392451374475,0.632693003735445,0.0409433432295697,-0.0378563961456394
2020-06-17 13:14:12.9770,0.134490966796875,-0.987350463867188,-0.209152221679688,-0.0585621111094952,-0.149070709943771,-0.11474122852087,0.772531320096014,0.632457049735194,0.0408793174564302,-0.0390169336988522
2020-06-17 13:14:12.9870,0.12762451171875,-0.974929809570312,-0.1993408203125,-0.0830621272325516,-0.114401407539845,-0.118247546255589,0.772781565208996,0.632094980013384,0.0408213618792056,-0.0399775578211108
2020-06-17 13:14:12.9970,0.121719360351562,-0.9566650390625,-0.182937622070312,-0.086529828608036,-0.0790282413363457,-0.109067097306252,0.773110774190519,0.631646301174843,0.0407852650161945,-0.0407338090562921
2020-06-17 13:14:13.0070,0.11676025390625,-0.946502685546875,-0.166595458984375,-0.0786468759179115,-0.0572047010064125,-0.0898808836936951,0.773444115371133,0.631205706866684,0.0407104153571368,-0.041306392945207
2020-06-17 13:14:13.0170,0.111221313476562,-0.94622802734375,-0.15625,-0.0639544799923897,-0.0332160107791424,-0.0653321370482445,0.773710549447929,0.630860539928182,0.0406068280024304,-0.0416899310875894
2020-06-17 13:14:13.0270,0.104873657226562,-0.948287963867188,-0.149078369140625,-0.0423541143536568,-0.0133184688165784,-0.043889693915844,0.773898125894434,0.630621272503998,0.0405042959297851,-0.0419273587738719
2020-06-17 13:14:13.0370,0.10211181640625,-0.955490112304688,-0.1533203125,-0.0177758019417524,0.00629145186394453,-0.0133469644933939,0.773996913549318,0.630496268138879,0.0404364484663006,-0.0420491059894001
2020-06-17 13:14:13.0470,0.100814819335938,-0.96710205078125,-0.164520263671875,0.00190389389172196,0.0235948078334332,0.0086182551458478,0.774002313902355,0.630488893367933,0.0404249803427377,-0.0420713011180943
2020-06-17 13:14:13.0570,0.103607177734375,-0.970489501953125,-0.17205810546875,0.0139397839084268,0.0451078228652477,0.0266675632447004,0.773933423708932,0.630576573579917,0.0404631051960335,-0.0419878272392996
2020-06-17 13:14:13.0670,0.108505249023438,-0.973678588867188,-0.18023681640625,0.0222621615976095,0.0520200580358505,0.0385673642158508,0.773808410174755,0.630740782090091,0.0404405072182822,-0.0418470492045352
2020-06-17 13:14:13.0780,0.115982055664062,-0.975830078125,-0.186508178710938,0.0573261417448521,0.0391106493771076,0.0469177067279816,0.773592179290691,0.631020766615217,0.0403668640757748,-0.041694706202475
2020-06-17 13:14:13.0869,0.125442504882812,-0.972061157226562,-0.184768676757812,0.0573261417448521,0.0391106493771076,0.0469177067279816,0.773281647155752,0.631416519312685,0.0402414826191232,-0.0415848095793927
2020-06-17 13:14:13.0970,0.137893676757812,-0.961578369140625,-0.18988037109375,0.0737935304641724,0.0164404921233654,0.0378192849457264,0.772918776229656,0.631873593215931,0.0400862138977927,-0.0415382113647175
2020-06-17 13:14:13.1070,0.1497802734375,-0.950958251953125,-0.203018188476562,0.0654112324118614,0.0206437595188618,0.0189923327416182,0.772567270653822,0.63231058330723,0.0399873814092952,-0.0415228597305423
2020-06-17 13:14:13.1170,0.148590087890625,-0.949127197265625,-0.211151123046875,0.0466740280389786,0.0246427617967129,0.0051548145711422,0.772271058032561,0.632674796482825,0.0399154659420565,-0.0415544269520588
2020-06-17 13:14:13.1270,0.148345947265625,-0.9632568359375,-0.206787109375,0.0405956283211708,0.0228579118847847,-0.00615270109847188,0.772018506983434,0.632981367043674,0.0398724029144204,-0.0416197709799293
2020-06-17 13:14:13.1370,0.147171020507812,-0.968429565429688,-0.195266723632812,0.0332109518349171,0.0291869137436152,-0.0188107062131166,0.77180919078202,0.633229817707196,0.0398870559782338,-0.0417084374713737
2020-06-17 13:14:13.1470,0.141357421875,-0.968704223632812,-0.187484741210938,0.0307712275534868,0.024335166439414,-0.0238936152309179,0.771630465012675,0.633437243718951,0.0399016855132018,-0.0418513945677659
2020-06-17 13:14:13.1570,0.138519287109375,-0.973724365234375,-0.188125610351562,0.0285624023526907,0.014067349024117,-0.0277804993093014,0.771481432288223,0.633604178814512,0.0399030320137738,-0.042070087466127
2020-06-17 13:14:13.1670,0.134170532226562,-0.982040405273438,-0.188262939453125,0.0255953744053841,-0.0023070964962244,-0.0283048748970032,0.771342416374336,0.633754801349261,0.039876491117918,-0.0423744489602275
2020-06-17 13:14:13.1770,0.129974365234375,-0.993133544921875,-0.193588256835938,0.0270196329802275,-0.0268329456448555,-0.0294511001557112,0.771214306911552,0.633885414352084,0.039834071595152,-0.0427904314861756
2020-06-17 13:14:13.1870,0.126876831054688,-0.995040893554688,-0.20684814453125,0.0353361517190933,-0.0376757383346558,-0.0285498853772879,0.771108333246326,0.633983920933954,0.039800398257431,-0.0432695585121081
2020-06-17 13:14:13.1970,0.122406005859375,-0.989013671875,-0.212615966796875,0.0409197360277176,-0.0263096336275339,-0.0250294525176287,0.771026835179233,0.634055415900831,0.0397749659311629,-0.0436955499507233
2020-06-17 13:14:13.2070,0.1104736328125,-0.978118896484375,-0.206008911132812,0.0345403999090195,-0.0188397336751223,-0.0174064207822084,0.77094292488287,0.634132961011328,0.0397628786258584,-0.0440602747998238
2020-06-17 13:14:13.2170,0.098297119140625,-0.966171264648438,-0.207748413085938,0.0262177549302578,-0.00942279677838087,-0.012835637666285,0.770836973642645,0.634238935414351,0.0397683943667286,-0.0443825154696216
2020-06-17 13:14:13.2270,0.093017578125,-0.962142944335938,-0.209793090820312,0.0262177549302578,-0.00942279677838087,-0.012835637666285,0.770709009975048,0.634376016259778,0.0397535820194904,-0.0446580861017866
2020-06-17 13:14:13.2370,0.097930908203125,-0.964920043945312,-0.206161499023438,0.0322974845767021,-0.00721956323832273,-0.010341321118176,0.77055701650396,0.634544251787451,0.0397108024394921,-0.04492804257511
2020-06-17 13:14:13.2470,0.108718872070312,-0.970550537109375,-0.201507568359375,0.0399463512003422,-0.00883343908935785,-0.0118492022156715,0.770386215170509,0.63473764460186,0.0396537526645155,-0.0451750141135683
2020-06-17 13:14:13.2570,0.11846923828125,-0.975326538085938,-0.199081420898438,0.0322282426059246,0.0209015533328056,-0.0117719704285264,0.770228703233003,0.634917554687766,0.0396209866435561,-0.0453610061914902
2020-06-17 13:14:13.2670,0.12457275390625,-0.98382568359375,-0.196426391601562,0.0132628083229065,0.0425163023173809,-0.0160114578902721,0.770140991776292,0.635013268741691,0.0396579033680632,-0.0454780387469724
2020-06-17 13:14:13.2770,0.126449584960938,-0.99139404296875,-0.203781127929688,-0.0196330901235342,0.0602209977805614,-0.020045880228281,0.770149818149663,0.634990960363339,0.0397811853849153,-0.045532352786295
2020-06-17 13:14:13.2859,0.123214721679688,-0.995269775390625,-0.216293334960938,-0.0196330901235342,0.0602209977805614,-0.020045880228281,0.770247843624322,0.634862976234682,0.0399421797974018,-0.0455179423036315
2020-06-17 13:14:13.2970,0.114944458007812,-0.997344970703125,-0.22637939453125,-0.0632069334387779,0.0617424584925175,-0.0153938699513674,0.770439560889853,0.63462668878557,0.0400645037506493,-0.0454608010942056
2020-06-17 13:14:13.3070,0.109222412109375,-0.9979248046875,-0.224838256835938,-0.0703042596578598,0.0617682933807373,-0.00169856415595859,0.770684832166578,0.634332488119555,0.0401396623581692,-0.0453430423571331
2020-06-17 13:14:13.3170,0.107086181640625,-0.990158081054688,-0.21429443359375,-0.0651049688458443,0.0467672385275364,0.0139163481071591,0.770924582717329,0.634049871576924,0.0401764824421678,-0.0451873696288272
2020-06-17 13:14:13.3270,0.107757568359375,-0.976837158203125,-0.206161499023438,-0.0457312688231468,0.0472295619547367,0.0271682385355234,0.771116949617289,0.633826851814041,0.0401705828916525,-0.0450388299423383
2020-06-17 13:14:13.3370,0.11199951171875,-0.968521118164062,-0.202728271484375,-0.0359311029314995,0.0573280043900013,0.0397026725113392,0.771242866737235,0.633686617932402,0.0401471763237767,-0.0448766642427054
2020-06-17 13:14:13.3469,0.11279296875,-0.969650268554688,-0.196548461914062,-0.0333049595355988,0.0768577605485916,0.0444913022220135,0.771326925630626,0.633599060853098,0.0401639589170915,-0.044652662713261
2020-06-17 13:14:13.3570,0.1103515625,-0.977706909179688,-0.191268920898438,-0.0400257147848606,0.101268298923969,0.0450793281197548,0.771425268180353,0.633494127872372,0.0402653918797638,-0.0443502399188901
2020-06-17 13:14:13.3670,0.110992431640625,-0.983062744140625,-0.198532104492188,-0.0463227555155754,0.122995428740978,0.0449546910822392,0.771571050330857,0.633332493800268,0.040432552923079,-0.0439690260546441
2020-06-17 13:14:13.3770,0.112045288085938,-0.980987548828125,-0.202011108398438,-0.0530847907066345,0.138516873121262,0.0415450446307659,0.771765247680489,0.633114098037155,0.0406539245852268,-0.0434994224684741
2020-06-17 13:14:13.3870,0.11151123046875,-0.975448608398438,-0.192489624023438,-0.055534366518259,0.144182473421097,0.0373614877462387,0.771970812158873,0.632881923158767,0.0409156410695422,-0.0429819360836372
2020-06-17 13:14:13.3970,0.115768432617188,-0.96795654296875,-0.181976318359375,-0.0540166310966015,0.134418532252312,0.0305147655308247,0.772148551724923,0.632680804912883,0.0411848727932899,-0.0424902273104191
2020-06-17 13:14:13.4069,0.122024536132812,-0.964141845703125,-0.177902221679688,-0.0544243603944778,0.119759954512119,0.0252347830682993,0.772300100873838,0.632507476902922,0.0414551271769095,-0.0420513767064307
2020-06-17 13:14:13.4170,0.132186889648438,-0.970367431640625,-0.181472778320312,-0.057184461504221,0.100715428590775,0.019379822537303,0.772452556874471,0.632328474159194,0.0416915203936446,-0.0417080960110192
2020-06-17 13:14:13.4270,0.144439697265625,-0.979644775390625,-0.194290161132812,-0.0600300468504429,0.0799158737063408,0.0149222239851952,0.772595540653126,0.632158524631716,0.0418720980997912,-0.0414542844477827
2020-06-17 13:14:13.4370,0.159881591796875,-0.987579345703125,-0.206207275390625,-0.0686589553952217,0.0649704784154892,0.00732262758538127,0.772738636290287,0.63198787638827,0.0419945107973696,-0.0412648172825501
2020-06-17 13:14:13.4470,0.171218872070312,-0.991867065429688,-0.210174560546875,-0.0665635839104652,0.0428942032158375,0.00162213144358248,0.772912406584406,0.631776934304111,0.0420764309868072,-0.0411569068883116
2020-06-17 13:14:13.4570,0.179367065429688,-0.99285888671875,-0.205764770507812,-0.0664312243461609,0.0196860861033201,-0.00733940536156297,0.773099249283778,0.63154763140545,0.0420951728721028,-0.0411477392318569
2020-06-17 13:14:13.4670,0.181686401367188,-0.987411499023438,-0.194244384765625,-0.0654461160302162,0.0042887544259429,-0.0135099496692419,0.77325689584448,0.63135095759612,0.0420664020178128,-0.0412329867059962
2020-06-17 13:14:13.4770,0.17498779296875,-0.975997924804688,-0.187652587890625,-0.0597418919205666,-0.0189752895385027,-0.0260217469185591,0.773376119281582,0.631196131391689,0.0420092769967285,-0.0414251431782496
2020-06-17 13:14:13.4870,0.164443969726562,-0.955902099609375,-0.193603515625,-0.0516088642179966,-0.0389918722212315,-0.0372853204607964,0.773462527459962,0.631074263441379,0.0419293462063078,-0.0417483240846911
2020-06-17 13:14:13.4970,0.151275634765625,-0.962844848632812,-0.2049560546875,-0.0512613244354725,-0.0435187146067619,-0.0484602116048336,0.773537671832251,0.630957450832877,0.0418594044808143,-0.0421895218191605
2020-06-17 13:14:13.5070,0.13751220703125,-0.9781494140625,-0.212203979492188,-0.0579248182475567,-0.0444188639521599,-0.0523276515305042,0.77364599813061,0.630790741770052,0.0418319937158504,-0.0427199482143602
2020-06-17 13:14:13.5170,0.126968383789062,-0.994140625,-0.217819213867188,-0.0668240338563919,-0.0533124916255474,-0.0557990819215775,0.773805659322595,0.630552441664859,0.0418652654056299,-0.0433095770393182
2020-06-17 13:14:13.5270,0.118408203125,-0.992095947265625,-0.22369384765625,-0.0727479755878448,-0.0548145137727261,-0.0589677132666111,0.773993910361418,0.630272760032863,0.0419270089917923,-0.0439522536509732
2020-06-17 13:14:13.5370,0.113311767578125,-0.988906860351562,-0.224761962890625,-0.0746779665350914,-0.0560243874788284,-0.0629677772521973,0.774183765931777,0.62998543084427,0.0420035836618896,-0.0446492155721634
2020-06-17 13:14:13.5470,0.115402221679688,-0.975982666015625,-0.224273681640625,-0.0762236639857292,-0.0477302372455597,-0.068795308470726,0.774339710973604,0.629734629285771,0.0421104976307015,-0.0453763669427563
2020-06-17 13:14:13.5570,0.123779296875,-0.96435546875,-0.220977783203125,-0.0837050154805183,-0.0361843705177307,-0.070511981844902,0.774489493174799,0.629491367930645,0.0422572859131283,-0.0460539297987108
2020-06-17 13:14:13.5669,0.1304931640625,-0.94598388671875,-0.218399047851562,-0.0882939100265503,-0.0178735386580229,-0.0685431063175201,0.774684270747474,0.629194863353657,0.0424268088113941,-0.046669802655549
2020-06-17 13:14:13.5770,0.131454467773438,-0.939407348632812,-0.217208862304688,-0.0864680483937263,-0.00134569534566253,-0.0636966899037361,0.77491479198828,0.628861973033901,0.0426091452029442,-0.0471608394194275
2020-06-17 13:14:13.5870,0.128936767578125,-0.942291259765625,-0.218780517578125,-0.0876797810196877,0.00792636629194021,-0.0515998117625713,0.775161254569119,0.628520436964597,0.0427574093267394,-0.0475278200670579
2020-06-17 13:14:13.5970,0.124908447265625,-0.948440551757812,-0.225509643554688,-0.0810607671737671,0.0132130077108741,-0.0331811234354973,0.775408680927489,0.628190791483383,0.0428352325759934,-0.0477791783932424
2020-06-17 13:14:13.6070,0.1197509765625,-0.956573486328125,-0.234283447265625,-0.0757522881031036,0.0193153750151396,-0.0143349971622229,0.775662125322111,0.627866670240687,0.0428434884936414,-0.0479181305494527
2020-06-17 13:14:13.6170,0.113372802734375,-0.9622802734375,-0.23297119140625,-0.0679827779531479,0.0204898286610842,0.00274358852766454,0.775907298915215,0.627564260036642,0.0427847603475206,-0.0479627699029427
2020-06-17 13:14:13.6270,0.107040405273438,-0.964019775390625,-0.224197387695312,-0.0515233799815178,0.0183150917291641,0.0125584024935961,0.776121145397585,0.62730564183409,0.0426902350854151,-0.0479702326262126
2020-06-17 13:14:13.6370,0.103927612304688,-0.957260131835938,-0.215255737304688,-0.0284596048295498,0.0182314682751894,0.0167126674205065,0.776271299894949,0.627126053264117,0.0425927609719501,-0.0479753998374569
2020-06-17 13:14:13.6470,0.105545043945312,-0.949081420898438,-0.204544067382812,-0.0115171065554023,0.0078318240121007,0.0213660094887018,0.776360215377747,0.627019759039188,0.0424915606539026,-0.0480156747974353
2020-06-17 13:14:13.6570,0.11492919921875,-0.943206787109375,-0.19879150390625,-0.00303520471788943,0.0139507027342916,0.0205944906920195,0.776411029934456,0.626960394572964,0.0423847087786213,-0.0480636317269218
2020-06-17 13:14:13.6670,0.125457763671875,-0.94390869140625,-0.1986083984375,-0.00830320362001657,0.0204810407012701,0.0168482214212418,0.776445791206077,0.626921879472061,0.0422848808009734,-0.0480924028640227
2020-06-17 13:14:13.6770,0.1339111328125,-0.9521484375,-0.207839965820312,-0.0273506641387939,0.03640141710639,0.0174977667629719,0.776525082525283,0.626829775709191,0.042210195554042,-0.0480783515187147
2020-06-17 13:14:13.6870,0.139785766601562,-0.963470458984375,-0.221054077148438,-0.0499228201806545,0.0331142768263817,0.0131477601826191,0.776686100827732,0.626637674785359,0.042165155030819,-0.04802108934458
2020-06-17 13:14:13.6969,0.14208984375,-0.974884033203125,-0.2310791015625,-0.0609903819859028,0.0341390632092953,0.0108907306566834,0.776901263585932,0.6263807244935,0.0421060803043313,-0.0479446829480193
2020-06-17 13:14:13.7070,0.140884399414062,-0.982818603515625,-0.233108520507812,-0.0655845999717712,0.0211899727582932,0.0153315523639321,0.777116736401775,0.626125988807872,0.0420067243644165,-0.0478670998890775
2020-06-17 13:14:13.7170,0.1368408203125,-0.983917236328125,-0.221435546875,-0.0528829209506512,0.00182240107096732,0.0260398555546999,0.777308824143966,0.625904195944279,0.0418330811972589,-0.0478008653144745
2020-06-17 13:14:13.7270,0.130767822265625,-0.976150512695312,-0.20941162109375,-0.0406885743141174,-0.00813862029463053,0.0348400063812733,0.777439885429934,0.625762067757159,0.0415615020765191,-0.0477671502616555
2020-06-17 13:14:13.7370,0.12738037109375,-0.962417602539062,-0.20513916015625,-0.0315741710364819,-0.0155816227197647,0.0417783409357071,0.777523283300115,0.625678569997724,0.0412703633998449,-0.0477559219014405
2020-06-17 13:14:13.7470,0.126602172851562,-0.960250854492188,-0.20574951171875,-0.0221883933991194,-0.00229750899598002,0.0374986380338669,0.77756948315342,0.625637095116477,0.0410113090477007,-0.0477702481983733
2020-06-17 13:14:13.7560,0.120269775390625,-0.97027587890625,-0.207168579101562,-0.0155347511172295,0.00902731716632843,0.0274768974632025,0.777608215100222,0.625598351473538,0.0408361913385696,-0.0477971957252549
2020-06-17 13:14:13.7670,0.108718872070312,-0.985214233398438,-0.208755493164062,-0.0145357996225357,0.0306010525673628,0.0208307132124901,0.777660253298546,0.625536175965177,0.0407646800582452,-0.0478253474451846
2020-06-17 13:14:13.7760,0.092315673828125,-0.9957275390625,-0.21435546875,-0.0130428317934275,0.0522983595728874,0.00939483288675547,0.777717624349387,0.625462081999122,0.0408056745286296,-0.0478265374445239
2020-06-17 13:14:13.7870,0.08056640625,-0.99371337890625,-0.215866088867188,-0.00473057292401791,0.0527580194175243,0.00419208174571395,0.777760127456875,0.625402818683775,0.0409186367864301,-0.0478138440641848
2020-06-17 13:14:13.7970,0.0777130126953125,-0.9827880859375,-0.219146728515625,-0.00184743478894234,0.0678850412368774,0.003686613868922,0.7777444314516,0.625415689085218,0.0410640141531398,-0.0477761649122335
2020-06-17 13:14:13.8070,0.078277587890625,-0.971023559570312,-0.217758178710938,-0.00665630493313074,0.0728672817349434,0.00737269502133131,0.777694835033896,0.625473472806403,0.0412297702056012,-0.0476842156891713
2020-06-17 13:14:13.8169,0.085052490234375,-0.963699340820312,-0.21502685546875,-0.0145629635080695,0.0753951519727707,0.0131645379588008,0.777662959534928,0.625512115141393,0.0413907285622585,-0.0475575731908572
2020-06-17 13:14:13.8270,0.0987548828125,-0.959854125976562,-0.220291137695312,-0.020446952432394,0.0808636918663979,0.0183979161083698,0.777662170521538,0.625515026083396,0.0415407649703225,-0.0474011131652
2020-06-17 13:14:13.8370,0.1124267578125,-0.96124267578125,-0.225128173828125,-0.0202059354633093,0.0806418508291245,0.0232533905655146,0.777669052510634,0.625515023250959,0.0416619634914292,-0.0471813655228798
2020-06-17 13:14:13.8470,0.119552612304688,-0.963134765625,-0.22784423828125,-0.0149280829355121,0.0707806944847107,0.0274790283292532,0.777665697392024,0.625536301612291,0.0417083780465042,-0.0469127878698758
2020-06-17 13:14:13.8570,0.120162963867188,-0.967681884765625,-0.232147216796875,-0.0102230766788125,0.0570584908127785,0.0276313610374928,0.777669715991529,0.625558335164824,0.0416300732593014,-0.0466210160323888
2020-06-17 13:14:13.8670,0.121597290039062,-0.969985961914062,-0.232757568359375,0.00106419913936406,0.0382429920136929,0.0304061081260443,0.77766549588526,0.625596527340407,0.0414540431969841,-0.0463349089972026
2020-06-17 13:14:13.8770,0.122634887695312,-0.96588134765625,-0.226516723632812,0.016080966219306,0.018140122294426,0.0286007523536682,0.777644951820262,0.625656919747335,0.0411787901517133,-0.0461091631064853
2020-06-17 13:14:13.8870,0.11920166015625,-0.957595825195312,-0.220474243164062,0.0330500937998295,0.0131967617198825,0.0237050633877516,0.777580133021123,0.625769930828685,0.0408565670581495,-0.0459551012373789
2020-06-17 13:14:13.8970,0.11627197265625,-0.950668334960938,-0.216262817382812,0.0309603121131659,0.0356157831847668,0.0169576779007912,0.777472766390057,0.625928837142079,0.0406044824818745,-0.0458308232321475
2020-06-17 13:14:13.9070,0.119216918945312,-0.954177856445312,-0.216522216796875,0.0132681345567107,0.0683364495635033,0.0120761040598154,0.77739374075513,0.626041546589392,0.0405253453556472,-0.0457017522915009
2020-06-17 13:14:13.9170,0.121078491210938,-0.967971801757812,-0.222381591796875,-0.00813862029463053,0.0817015171051025,0.00910534802824259,0.77737794382244,0.626066076283844,0.0406255201874853,-0.0455452269117698
2020-06-17 13:14:13.9270,0.120773315429688,-0.9827880859375,-0.23114013671875,-0.0186943262815475,0.0835633352398872,0.00824088603258133,0.777421777955471,0.626011669581797,0.0408065663382525,-0.04538273737499
2020-06-17 13:14:13.9370,0.117111206054688,-0.987258911132812,-0.232711791992188,-0.00977273564785719,0.0657744854688644,0.0123586654663086,0.777490908124826,0.62592657344068,0.0409674809524028,-0.045226960415842
2020-06-17 13:14:13.9470,0.117828369140625,-0.980621337890625,-0.223403930664062,-0.000459927920019254,0.0582044497132301,0.0108912633731961,0.777539867417329,0.625867164417772,0.0410659209874982,-0.0451180364571541
2020-06-17 13:14:13.9570,0.125030517578125,-0.967071533203125,-0.214752197265625,0.00573378568515182,0.0537593699991703,0.00954050850123167,0.777541671973547,0.625865791292728,0.0411386639101826,-0.045039648819609
2020-06-17 13:14:13.9670,0.133087158203125,-0.95977783203125,-0.211227416992188,-0.0054970309138298,0.0592252388596535,0.0073519223369658,0.777525664196041,0.625887158204615,0.0411959574974567,-0.0449666520537684
2020-06-17 13:14:13.9770,0.141510009765625,-0.962326049804688,-0.21466064453125,-0.0159696452319622,0.0692315325140953,0.00395692465826869,0.777533549830891,0.625878096813329,0.0412862612054498,-0.0448735050154701
2020-06-17 13:14:13.9870,0.143295288085938,-0.965225219726562,-0.2227783203125,-0.0206301771104336,0.0746721103787422,0.00283573381602764,0.777566641262523,0.625834984482007,0.0414377446013427,-0.0447616344259145
2020-06-17 13:14:13.9970,0.135833740234375,-0.968490600585938,-0.227035522460938,-0.0307448636740446,0.0866305008530617,0.00381950568407774,0.777629505106894,0.625753968289126,0.0416305095931456,-0.0446231400579733
2020-06-17 13:14:14.0070,0.127227783203125,-0.975875854492188,-0.220993041992188,-0.0352999344468117,0.087085634469986,0.00945315696299076,0.777730500959994,0.625627463427176,0.0418269970395186,-0.0444527524552743
2020-06-17 13:14:14.0170,0.117721557617188,-0.98272705078125,-0.21405029296875,-0.0347340106964111,0.0841979682445526,0.0117900799959898,0.777844874072194,0.625488447845084,0.0419954200687435,-0.0442485952908111
2020-06-17 13:14:14.0270,0.113265991210938,-0.988494873046875,-0.214447021484375,-0.0308758895844221,0.0835478901863098,0.0140761379152536,0.777928064765002,0.625388694582185,0.0421430179320849,-0.044055337694146
2020-06-17 13:14:14.0370,0.115692138671875,-0.992828369140625,-0.219253540039062,-0.0312884151935577,0.0953901708126068,0.0178708769381046,0.777986404815646,0.625316598214793,0.0423341605778223,-0.0438648466003834
2020-06-17 13:14:14.0470,0.120620727539062,-0.987091064453125,-0.213836669921875,-0.0326966941356659,0.104409761726856,0.0207289811223745,0.778040238371639,0.62524636891466,0.0426020383382513,-0.0436512538543986
2020-06-17 13:14:14.0570,0.124496459960938,-0.976806640625,-0.2059326171875,-0.0258755385875702,0.115135908126831,0.020450146868825,0.778093707345675,0.625173325688474,0.0429244850735557,-0.0434279174937666
2020-06-17 13:14:14.0670,0.126556396484375,-0.964111328125,-0.198287963867188,-0.0102848615497351,0.110139816999435,0.0190418679267168,0.778137759411892,0.625110797326049,0.0432687125749459,-0.0431964924031754
2020-06-17 13:14:14.0770,0.125350952148438,-0.95440673828125,-0.195220947265625,-0.00112864770926535,0.103506952524185,0.0192959327250719,0.77815396286354,0.625086817424458,0.0435576240359321,-0.0429606116143168
2020-06-17 13:14:14.0869,0.127105712890625,-0.954376220703125,-0.199020385742188,-0.00350072514265776,0.108880676329136,0.0230869427323341,0.778137807073463,0.625108227598338,0.0438011656004945,-0.0426932650871896
2020-06-17 13:14:14.0970,0.132720947265625,-0.960205078125,-0.202301025390625,-0.00727229379117489,0.10365342348814,0.0219780039042234,0.77810693861784,0.62515326971152,0.0439986902589269,-0.0423921773357675
2020-06-17 13:14:14.1070,0.136123657226562,-0.969284057617188,-0.203628540039062,-0.00301256775856018,0.0939214378595352,0.0216493681073189,0.778071181606852,0.625206413286603,0.0441555551583078,-0.042100642357092
2020-06-17 13:14:14.1170,0.140625,-0.975830078125,-0.211944580078125,0.00256728730164468,0.0901546627283096,0.0230001248419285,0.778031941874376,0.625263316896433,0.0442903776158001,-0.0418383127947091
2020-06-17 13:14:14.1270,0.146194458007812,-0.9757080078125,-0.214599609375,0.000690557644702494,0.0861748307943344,0.022487998008728,0.777974774144502,0.625340130643512,0.0444291362994537,-0.0416055723341325
2020-06-17 13:14:14.1370,0.146072387695312,-0.97271728515625,-0.210128784179688,0.00016591492749285,0.0792170539498329,0.0206094048917294,0.777905097756872,0.625429960167063,0.0445863775231094,-0.0413893554994883
2020-06-17 13:14:14.1470,0.144180297851562,-0.967819213867188,-0.208724975585938,-0.00542166316881776,0.0781470015645027,0.0154500622302294,0.777825629811425,0.625529046894216,0.0447469983115409,-0.0412117367042566
2020-06-17 13:14:14.1570,0.145736694335938,-0.961578369140625,-0.206344604492188,-0.00391830876469612,0.0758699998259544,0.0114044547080994,0.77775269400471,0.625617779184537,0.044910859374252,-0.0410628304782961
2020-06-17 13:14:14.1670,0.145355224609375,-0.958938598632812,-0.205245971679688,0.00387543207034469,0.0635358318686485,0.00855620391666889,0.777682812713792,0.625700686858651,0.0450595781244537,-0.0409600743825388
2020-06-17 13:14:14.1770,0.141250610351562,-0.962875366210938,-0.208251953125,0.00698920013383031,0.0593269728124142,0.0085018752142787,0.777601991013162,0.625794247547416,0.0452071506035695,-0.0409025285677581
2020-06-17 13:14:14.1870,0.1387939453125,-0.9658203125,-0.21197509765625,0.00643606157973409,0.0546344816684723,0.0114388093352318,0.777513671926083,0.625897094327309,0.0453403579965705,-0.0408603624236637
2020-06-17 13:14:14.1970,0.139724731445312,-0.965530395507812,-0.216751098632812,0.00469541922211647,0.0508397445082664,0.0150077119469643,0.777453552732888,0.625965100841276,0.0454587926577895,-0.0408309201693752
2020-06-17 13:14:14.2070,0.140182495117188,-0.964202880859375,-0.215545654296875,0.00340857985429466,0.0442814454436302,0.0149911995977163,0.777410125666473,0.626011113357707,0.0455709487970894,-0.0408273326291954
2020-06-17 13:14:14.2170,0.138381958007812,-0.961288452148438,-0.213607788085938,0.00248419656418264,0.0466167703270912,0.00943371560424566,0.777353459363235,0.626072845552433,0.0456764173674893,-0.0408418434251056
2020-06-17 13:14:14.2270,0.13568115234375,-0.958877563476562,-0.212326049804688,0.00299472454935312,0.0488218665122986,0.0072613749653101,0.777300316768764,0.626129389144784,0.0457977887838689,-0.0408505586604128
2020-06-17 13:14:14.2370,0.134307861328125,-0.961502075195312,-0.208175659179688,0.00566028244793415,0.0475297011435032,0.00520301796495914,0.777236077862066,0.626197249281574,0.045936803975476,-0.040876574003952
2020-06-17 13:14:14.2470,0.132766723632812,-0.970108032226562,-0.206954956054688,0.00441205874085426,0.0417051017284393,0.00620889384299517,0.777169865800716,0.626267215101599,0.0460748995504337,-0.040908172919378
2020-06-17 13:14:14.2570,0.131439208984375,-0.9759521484375,-0.213775634765625,0.00466612447053194,0.0335481055080891,0.00471539283171296,0.777109946822686,0.626332100887156,0.0461656276540196,-0.0409507603205856
2020-06-17 13:14:14.2670,0.13140869140625,-0.977157592773438,-0.219467163085938,0.0089644668623805,0.0302774775773287,0.00870321039110422,0.77706209626106,0.626384440471343,0.0462146527609918,-0.0410028920925333
2020-06-17 13:14:14.2770,0.135147094726562,-0.976898193359375,-0.218551635742188,0.00576627627015114,0.0329792536795139,0.00851093046367168,0.777027415349899,0.626420926297962,0.0462595079791293,-0.0410521231142444
2020-06-17 13:14:14.2870,0.139190673828125,-0.976715087890625,-0.22247314453125,-0.00144982489291579,0.0393436774611473,0.0127829071134329,0.777000950108832,0.62644742360602,0.0463164752472199,-0.0410844630977003
2020-06-17 13:14:14.2970,0.13922119140625,-0.976654052734375,-0.220779418945312,-0.00598492193967104,0.0362911634147167,0.0114289559423923,0.776991939209791,0.626453729931675,0.0463772682494872,-0.041090140513467
2020-06-17 13:14:14.3070,0.135528564453125,-0.976974487304688,-0.219161987304688,-0.00675936928018928,0.0263189561665058,0.0126207200810313,0.776990958622658,0.626451813590408,0.0463955993253841,-0.0411171962950899
2020-06-17 13:14:14.3170,0.1297607421875,-0.973587036132812,-0.217575073242188,-0.00580915343016386,0.0239852275699377,0.0137408459559083,0.776981063071449,0.626463382216442,0.046374974856516,-0.0411511856129692
2020-06-17 13:14:14.3270,0.12664794921875,-0.966262817382812,-0.212158203125,-0.00529436441138387,0.0252217333763838,0.0126140620559454,0.776957362725029,0.626493464258923,0.046349130520451,-0.041169817199251
2020-06-17 13:14:14.3370,0.124526977539062,-0.95806884765625,-0.2110595703125,-0.00793675240129232,0.0236123856157064,0.012246279977262,0.776953399915791,0.626499990627402,0.046309811328122,-0.0411895311688781
2020-06-17 13:14:14.3469,0.124923706054688,-0.95880126953125,-0.218856811523438,-0.0190349444746971,0.0310892090201378,0.0114569189026952,0.776980587614175,0.626467372003809,0.0462732919207415,-0.0412138416092244
2020-06-17 13:14:14.3570,0.125167846679688,-0.9677734375,-0.224884033203125,-0.0292654763907194,0.0451829247176647,0.0130391027778387,0.777032807084431,0.626401254510049,0.0462816384030494,-0.0412249318914628
2020-06-17 13:14:14.3670,0.124038696289062,-0.9749755859375,-0.220245361328125,-0.0329947024583817,0.041209489107132,0.0104233464226127,0.777124211561289,0.626283306290706,0.0463462731108775,-0.0412213905097783
2020-06-17 13:14:14.3770,0.122360229492188,-0.978439331054688,-0.221649169921875,-0.0292516276240349,0.0343340039253235,0.00866406224668026,0.777212943438923,0.626168156052624,0.0464069180414123,-0.041229587125756
2020-06-17 13:14:14.3870,0.123779296875,-0.981353759765625,-0.228073120117188,-0.0241434201598167,0.0310143753886223,0.00971814151853323,0.777283182882867,0.626078393807004,0.0464284939257822,-0.041244313151091
2020-06-17 13:14:14.3970,0.1234130859375,-0.977218627929688,-0.226791381835938,-0.0206892993301153,0.0295464396476746,0.0186735522001982,0.777338712670908,0.626011002028616,0.0464099288478817,-0.0412416006793928
2020-06-17 13:14:14.4069,0.122329711914062,-0.97216796875,-0.219894409179688,-0.0163624621927738,0.024246484041214,0.0186043102294207,0.777375079786242,0.625971309623114,0.046360689769748,-0.0412139697206143
2020-06-17 13:14:14.4170,0.125213623046875,-0.964645385742188,-0.217758178710938,-0.0102867260575294,0.0183068346232176,0.0144194196909666,0.777395312060517,0.625951990392007,0.0462836549709607,-0.04121235000755
2020-06-17 13:14:14.4270,0.127548217773438,-0.956527709960938,-0.217376708984375,-0.00859988015145063,0.0218805316835642,0.0122297685593367,0.777424420186954,0.62592017460611,0.0461959375294741,-0.0412448939119538
2020-06-17 13:14:14.4370,0.126861572265625,-0.955825805664062,-0.215484619140625,-0.00801797863095999,0.0248004216700792,0.0104758106172085,0.777454482298392,0.625885672268589,0.046133082451084,-0.0412721686684606
2020-06-17 13:14:14.4470,0.125778198242188,-0.961013793945312,-0.211776733398438,-0.0113115105777979,0.0232275575399399,0.00954956281930208,0.777468460671032,0.625871572783787,0.0460758165580605,-0.0412866342957752
2020-06-17 13:14:14.4570,0.126541137695312,-0.9656982421875,-0.215347290039062,-0.0202213823795319,0.0307975932955742,0.00773062417283654,0.777505502994353,0.625829190864465,0.0460254139510228,-0.0412877457130435
2020-06-17 13:14:14.4670,0.12451171875,-0.969924926757812,-0.218032836914062,-0.0288409683853388,0.0323590040206909,0.00852957181632519,0.777585707064707,0.625731599994076,0.0460084648540632,-0.0412753449326112
2020-06-17 13:14:14.4770,0.121597290039062,-0.97601318359375,-0.21624755859375,-0.0201215129345655,0.0154777597635984,0.00518038077279925,0.777672939243139,0.625625604807549,0.045968249579021,-0.0412834374630529
2020-06-17 13:14:14.4870,0.120712280273438,-0.981231689453125,-0.217575073242188,-0.0137677434831858,0.00852557737380266,0.00607413798570633,0.77772528174326,0.625562802371652,0.0458851739977124,-0.0413414711094304
2020-06-17 13:14:14.4970,0.1226806640625,-0.977752685546875,-0.220001220703125,-0.0043534692376852,-0.000602140731643885,0.00591647857800126,0.77774980964545,0.625533708074178,0.0457745387630394,-0.0414427950368591
2020-06-17 13:14:14.5070,0.124404907226562,-0.9754638671875,-0.216964721679688,-0.000240749766817316,0.00147219549398869,0.00477318372577429,0.77775723152608,0.625524420231161,0.0456597283587588,-0.041570154071911
2020-06-17 13:14:14.5170,0.12469482421875,-0.974624633789062,-0.211502075195312,-0.00185968540608883,0.00484136072918773,0.00425706291571259,0.777749114173122,0.625534659713187,0.0455398446355518,-0.041699250005247
2020-06-17 13:14:14.5270,0.123825073242188,-0.968643188476562,-0.207855224609375,-0.00203358987346292,0.0211004912853241,0.00225276802666485,0.777728298665487,0.625560046684242,0.0454587572281151,-0.0417950097328908
2020-06-17 13:14:14.5370,0.121780395507812,-0.961807250976562,-0.208587646484375,-0.00480194576084614,0.0306926649063826,0.00293506984598935,0.777717479959806,0.625571330054247,0.0454390513669384,-0.0418488349897909
2020-06-17 13:14:14.5480,0.119384765625,-0.961318969726562,-0.208908081054688,-0.00683793239295483,0.0331235975027084,0.001806422136724,0.777718045545881,0.625568340110164,0.0454486697185452,-0.0418725674508355
2020-06-17 13:14:14.5570,0.117019653320312,-0.962921142578125,-0.20684814453125,-0.00452151475474238,0.0281368289142847,0.00366743910126388,0.777708447706186,0.625579807471462,0.0454500238442111,-0.04187803938779
2020-06-17 13:14:14.5669,0.117218017578125,-0.963394165039062,-0.208740234375,-0.00244691246189177,0.0241090636700392,0.00511220376938581,0.77768987081211,0.625604523644944,0.0454198680676934,-0.041886518307689
2020-06-17 13:14:14.5770,0.118301391601562,-0.967041015625,-0.213760375976562,-0.00128870364278555,0.024817731231451,0.00581900682300329,0.777674537242317,0.625625082521337,0.0453670208369701,-0.0419213986586459
2020-06-17 13:14:14.5870,0.12109375,-0.976211547851562,-0.218734741210938,-0.00924596283584833,0.0358349643647671,0.00719745922833681,0.777656427246091,0.625648536888745,0.0453318579387656,-0.0419453466744141
2020-06-17 13:14:14.5970,0.12286376953125,-0.981735229492188,-0.218963623046875,-0.0146937249228358,0.0293400455266237,0.0107261473312974,0.777654872499847,0.625652667753252,0.0452986775546984,-0.0419484019037929
2020-06-17 13:14:14.6070,0.123001098632812,-0.984710693359375,-0.215545654296875,-0.0160308983176947,0.034422155469656,0.0129783824086189,0.777659791332505,0.625649448182989,0.0452736574894419,-0.0419322414203455
2020-06-17 13:14:14.6170,0.121246337890625,-0.980514526367188,-0.210342407226562,-0.0165480840951204,0.0448958352208138,0.0123062012717128,0.777677645585971,0.625630924125591,0.045264017714503,-0.041887886482381
2020-06-17 13:14:14.6270,0.121353149414062,-0.975631713867188,-0.209197998046875,-0.0141323301941156,0.0516778416931629,0.00789573974907398,0.77769105069953,0.625617151135716,0.0452800360946596,-0.0418273618335861
2020-06-17 13:14:14.6370,0.11932373046875,-0.972488403320312,-0.211578369140625,-0.0172887090593576,0.056445699185133,0.0051367050036788,0.777696790929795,0.625612769431452,0.0453661517573918,-0.0416926417552646
2020-06-17 13:14:14.6470,0.11505126953125,-0.971954345703125,-0.216110229492188,-0.0237865559756756,0.0574209466576576,0.00199417490512133,0.777733976547512,0.625565562899543,0.0454453327946281,-0.0416210279180791
2020-06-17 13:14:14.6570,0.113632202148438,-0.972427368164062,-0.222137451171875,-0.0303105022758245,0.0462958589196205,0.00618013180792332,0.777806922121898,0.625474638706702,0.0455187162147638,-0.0415441296471618
2020-06-17 13:14:14.6670,0.116897583007812,-0.971282958984375,-0.227432250976562,-0.0338578335940838,0.0511627867817879,0.0122904879972339,0.777887583661726,0.625375514607106,0.0455703452412918,-0.0414694652655314
2020-06-17 13:14:14.6770,0.120758056640625,-0.976181030273438,-0.226364135742188,-0.0302183553576469,0.046592004597187,0.0153768258169293,0.777951323387816,0.625299751115242,0.0456010182999003,-0.0413824458481404
2020-06-17 13:14:14.6870,0.123306274414062,-0.978469848632812,-0.2216796875,-0.0286966264247894,0.0531476400792599,0.018065020442009,0.777992549458949,0.625254433197089,0.0456130859729127,-0.0412787250503194
2020-06-17 13:14:14.6969,0.126907348632812,-0.974090576171875,-0.215423583984375,-0.026099244132638,0.0489720702171326,0.0181720796972513,0.778030523701318,0.625213292122033,0.0456282487246935,-0.0411692416896424
2020-06-17 13:14:14.7070,0.126708984375,-0.969406127929688,-0.2142333984375,-0.0285413637757301,0.0507670417428017,0.0169808473438025,0.778079686528307,0.625157953349649,0.0456535755893219,-0.0410522327236841
2020-06-17 13:14:14.7170,0.125030517578125,-0.965866088867188,-0.215576171875,-0.0310047883540392,0.0510149821639061,0.0140359243378043,0.778146488591439,0.625081671229598,0.0456612744480397,-0.0409389130462232
2020-06-17 13:14:14.7270,0.119781494140625,-0.964340209960938,-0.218109130859375,-0.0256520994007587,0.050034936517477,0.0117517309263349,0.77821873883232,0.624997878638871,0.0456696534041732,-0.0408353888813058
2020-06-17 13:14:14.7370,0.117904663085938,-0.9676513671875,-0.216583251953125,-0.023012375459075,0.0488692708313465,0.0103762084618211,0.778293557024648,0.624908604011688,0.0456850123077924,-0.0407585006657722
2020-06-17 13:14:14.7470,0.11712646484375,-0.969268798828125,-0.21630859375,-0.0164476819336414,0.0444691963493824,0.00863796286284924,0.778349512062699,0.624841294791335,0.0457106998966493,-0.0406930621876136
2020-06-17 13:14:14.7560,0.121078491210938,-0.969070434570312,-0.2181396484375,-0.0134851820766926,0.0402139984071255,0.0144220823422074,0.778358705297298,0.624831147436483,0.0457182754702942,-0.0406645099459473
2020-06-17 13:14:14.7680,0.125244140625,-0.967697143554688,-0.215621948242188,-0.00829920917749405,0.0381476506590843,0.0147533798590302,0.778373235007615,0.624817294750084,0.0457139505635244,-0.0406040629597847
2020-06-17 13:14:14.7770,0.126068115234375,-0.964996337890625,-0.2091064453125,-0.0111583787947893,0.04276317730546,0.0129663981497288,0.778373697838431,0.624818355979456,0.0457246969886087,-0.0405667429029855
2020-06-17 13:14:14.7870,0.126068115234375,-0.964996337890625,-0.2091064453125,-0.0124153904616833,0.0475470125675201,0.0113985957577825,0.778382481925866,0.624808862391833,0.0457529535084212,-0.0405125234070746
2020-06-17 13:14:14.7970,0.124160766601562,-0.969955444335938,-0.208480834960938,-0.0153059856966138,0.0488471686840057,0.0108467889949679,0.7784054204094,0.624782512720046,0.0457818536983267,-0.0404454589346651
2020-06-17 13:14:14.8070,0.119903564453125,-0.975234985351562,-0.212997436523438,-0.0132518894970417,0.037210751324892,0.010047041811049,0.778425758920435,0.624759726490118,0.0457919347218615,-0.0403945629950993
2020-06-17 13:14:14.8169,0.117523193359375,-0.974655151367188,-0.213775634765625,-0.0087444894015789,0.036126047372818,0.0121048660948873,0.778429378414707,0.624758931118927,0.0457698938655721,-0.0403620815068273
2020-06-17 13:14:14.8270,0.12139892578125,-0.97149658203125,-0.210494995117188,0.000344613043125719,0.0315640531480312,0.0104941865429282,0.778407022252341,0.624789614199254,0.0457426724762505,-0.0403491463567691
2020-06-17 13:14:14.8370,0.124588012695312,-0.967483520507812,-0.204742431640625,0.00200775708071887,0.0368134081363678,0.00696469889953732,0.77836756077852,0.624839058788442,0.0457419215505594,-0.0403456014075127
2020-06-17 13:14:14.8470,0.127182006835938,-0.967117309570312,-0.203155517578125,0.00485068140551448,0.0386784188449383,0.00282534747384489,0.778316918185556,0.624899311070052,0.0457741598363414,-0.04035284601599
2020-06-17 13:14:14.8570,0.126983642578125,-0.97039794921875,-0.207290649414062,0.00428209686651826,0.0475014708936214,-0.000383495207643136,0.778255947024103,0.624970157206822,0.045842570564136,-0.0403539619686683
2020-06-17 13:14:14.8670,0.123779296875,-0.9718017578125,-0.208358764648438,0.00321763125248253,0.0449645444750786,-0.00136993010528386,0.77819111455248,0.625046290630126,0.0459070848282595,-0.0403517454846887
2020-06-17 13:14:14.8770,0.121627807617188,-0.973220825195312,-0.214599609375,-0.00484881736338139,0.0442675948143005,-0.000507598510012031,0.778158284157368,0.625083881938204,0.0459626676180792,-0.0403392925540046
2020-06-17 13:14:14.8870,0.12103271484375,-0.974960327148438,-0.227127075195312,-0.00993012823164463,0.0398161225020885,0.000916393706575036,0.778154327220106,0.625087987723209,0.0459936586906849,-0.0403166714029942
2020-06-17 13:14:14.8970,0.119873046875,-0.976776123046875,-0.229522705078125,-0.0182082988321781,0.0468021258711815,0.00698627065867186,0.778165444756025,0.62507530590002,0.0460122978705816,-0.0402774252692892
2020-06-17 13:14:14.9070,0.119613647460938,-0.972274780273438,-0.223602294921875,-0.0209747906774282,0.0423517189919949,0.00870880298316479,0.778190227368836,0.625045386806044,0.046045659464996,-0.0402247648166681
2020-06-17 13:14:14.9170,0.117919921875,-0.96246337890625,-0.21514892578125,-0.0148958591744304,0.0442886352539062,0.011745871976018,0.778180617091613,0.625057306558688,0.0460870188194098,-0.0401780710942338
2020-06-17 13:14:14.9270,0.117767333984375,-0.953720092773438,-0.20849609375,0.000483363721286878,0.0470354184508324,0.00950402300804853,0.778124281912911,0.625126401739641,0.0461365826545579,-0.040137258084288
2020-06-17 13:14:14.9370,0.118759155273438,-0.951370239257812,-0.205978393554688,0.0152892079204321,0.0486343801021576,0.00948191899806261,0.77803545732763,0.625235250848399,0.0461959591882522,-0.0400954061234198
2020-06-17 13:14:14.9470,0.121002197265625,-0.954879760742188,-0.208953857421875,0.0189760886132717,0.0565056204795837,0.00631249090656638,0.777926012201806,0.625369912229003,0.0462662406065378,-0.0400378245990235
2020-06-17 13:14:14.9570,0.120559692382812,-0.961196899414062,-0.2177734375,0.0211028885096312,0.0512647852301598,0.00357263046316803,0.77782511753327,0.625493095824591,0.0463365643469783,-0.0399924544713315
2020-06-17 13:14:14.9670,0.119705200195312,-0.96759033203125,-0.222030639648438,0.0135783925652504,0.0574521087110043,0.00194916757754982,0.777781308982337,0.625545400416048,0.0464167753822142,-0.0399333241687356
2020-06-17 13:14:14.9770,0.117935180664062,-0.969573974609375,-0.221054077148438,0.00745205720886588,0.0570923127233982,0.000141946482472122,0.777759958885672,0.625569869139154,0.0464943727649319,-0.0398755373703553
2020-06-17 13:14:14.9870,0.118728637695312,-0.969268798828125,-0.223007202148438,0.00846991781145334,0.0424728915095329,-0.000849015777930617,0.777723704944352,0.625613193097046,0.0465254562019152,-0.0398666943168554
2020-06-17 13:14:14.9970,0.122238159179688,-0.971588134765625,-0.224380493164062,0.012114186771214,0.0356631875038147,-0.000548344862181693,0.77766415502605,0.625686409402598,0.0465242386552698,-0.0398807509213567
2020-06-17 13:14:15.0070,0.121795654296875,-0.975936889648438,-0.224929809570312,0.00571540975943208,0.0417349301278591,0.000107858024421148,0.777610033767539,0.625751017507901,0.0465570829322142,-0.0398840507059582
2020-06-17 13:14:15.0170,0.119537353515625,-0.980316162109375,-0.224838256835938,-0.0029033781029284,0.0458905249834061,0.00223865313455462,0.777574078612738,0.625793303938641,0.0465980537031805,-0.0398737307783937
2020-06-17 13:14:15.0270,0.118667602539062,-0.982101440429688,-0.223403930664062,-0.0111882062628865,0.0502088405191898,0.0026165556628257,0.777564111043157,0.625802303384322,0.0466662736353224,-0.0398470726846517
2020-06-17 13:14:15.0370,0.11810302734375,-0.98199462890625,-0.22314453125,-0.0196828916668892,0.0520962253212929,0.00239098607562482,0.777604537624082,0.625749759597248,0.046732481041116,-0.0398057363474863
2020-06-17 13:14:15.0470,0.11639404296875,-0.980545043945312,-0.220855712890625,-0.0221183523535728,0.0488980337977409,0.00578145636245608,0.777664092700722,0.625675436467692,0.0467794901428622,-0.0397553320562216
2020-06-17 13:14:15.0570,0.115249633789062,-0.97625732421875,-0.214706420898438,-0.0212818533182144,0.0463395342230797,0.00609810603782535,0.777722475792347,0.625604417660397,0.0468040203096582,-0.0397019764504453
2020-06-17 13:14:15.0670,0.115982055664062,-0.968338012695312,-0.2109375,-0.0117647806182504,0.0389599166810513,0.00913490913808346,0.777766062034258,0.625552740759719,0.0468048838720046,-0.0396613681238373
