Timestamp,AccelX,AccelY,AccelZ,GyroX,GyroY,GyroZ,QuatW,QuatX,QuatY,QuatZ
2020-06-17 13:13:25.0600,0.120162963867188,-0.9783935546875,-0.189483642578125,0.026206836104393,0.080667681992054,0.0139512354508042,0.768065807348191,0.63490222661416,0.0835109467252653,-5.29259487087858e-08
2020-06-17 13:13:25.0709,0.12249755859375,-0.96832275390625,-0.187744140625,0.030457241460681,0.0788439512252808,0.0118593228980899,0.767922693092319,0.635056070617919,0.0836570403053358,0.000155603726368035
2020-06-17 13:13:25.0810,0.12225341796875,-0.960098266601562,-0.189407348632812,0.0342466533184052,0.0764122158288956,0.00593432178720832,0.767772994352061,0.63521624851518,0.0838144325151419,0.00029608805199647
2020-06-17 13:13:25.0910,0.120651245117188,-0.95660400390625,-0.19024658203125,0.0332242660224438,0.0883993729948997,0.0012767193838954,0.767623240899743,0.635378243023152,0.0839576994085224,0.000391194855486241
2020-06-17 13:13:25.1010,0.118789672851562,-0.95849609375,-0.191238403320312,0.0305089075118303,0.0904140546917915,-0.000560861721169204,0.767475899642189,0.635532224409667,0.0841384988404113,0.000498215008590623
2020-06-17 13:13:25.1110,0.119232177734375,-0.962020874023438,-0.19305419921875,0.0173520930111408,0.094841293990612,-0.00014887070574332,0.767364106305582,0.635643446877704,0.0843169324797344,0.000625853397567662
2020-06-17 13:13:25.1210,0.118515014648438,-0.968475341796875,-0.200042724609375,-0.00328154698945582,0.101266965270042,0.00126020784955472,0.767291415430996,0.635704488285324,0.0845164449246102,0.000811120889910053
2020-06-17 13:13:25.1310,0.115631103515625,-0.980026245117188,-0.202865600585938,-0.00657268147915602,0.109578423202038,0.00987233780324459,0.767266114044308,0.635704574696788,0.0847421635651672,0.00108150969335617
2020-06-17 13:13:25.1409,0.1114501953125,-0.992385864257812,-0.200332641601562,-0.0134119456633925,0.121990084648132,0.0202253758907318,0.767256192362914,0.635681427330509,0.0850001307805819,0.00142688299980554
2020-06-17 13:13:25.1510,0.110458374023438,-0.996719360351562,-0.2003173828125,-0.00851545762270689,0.13792085647583,0.0310505945235491,0.767252438350666,0.635650155145555,0.0852601834861351,0.00181030944855681
2020-06-17 13:13:25.1610,0.111923217773438,-0.992828369140625,-0.196044921875,-0.0171701982617378,0.12201139330864,0.0367236584424973,0.767267052102055,0.635600051057214,0.0854921110620969,0.00222369081390445
2020-06-17 13:13:25.1710,0.114944458007812,-0.987350463867188,-0.18994140625,-0.0134287234395742,0.129355326294899,0.0393463410437107,0.767287096911449,0.635544302679981,0.0857136850039225,0.00266729212228422
2020-06-17 13:13:25.1810,0.118606567382812,-0.985702514648438,-0.185928344726562,-0.0256888512521982,0.129686892032623,0.0401399619877338,0.767317655681122,0.635479203303837,0.0859073957036876,0.003117180097097
2020-06-17 13:13:25.1910,0.122604370117188,-0.9859619140625,-0.18389892578125,-0.0207494869828224,0.133474975824356,0.0369502939283848,0.767367680102246,0.635388020895735,0.0861169803562539,0.0035738118331452
2020-06-17 13:13:25.2010,0.124908447265625,-0.985580444335938,-0.184967041015625,-0.0310671050101519,0.131521001458168,0.0321536734700203,0.767439031745807,0.635268848875083,0.0863396879614129,0.0040349082655711
2020-06-17 13:13:25.2110,0.124984741210938,-0.986221313476562,-0.188583374023438,-0.0332237333059311,0.125203460454941,0.0283464193344116,0.7675407953106,0.635114000461142,0.0865516006694222,0.00448936229069547
2020-06-17 13:13:25.2210,0.125991821289062,-0.988662719726562,-0.187942504882812,-0.036870401352644,0.125165909528732,0.0249974951148033,0.76762935217978,0.634977841176092,0.0867408421994362,0.00493408369740387
2020-06-17 13:13:25.2310,0.129928588867188,-0.990066528320312,-0.187850952148438,-0.0414811298251152,0.130856022238731,0.0213460344821215,0.767721144011402,0.634834949561654,0.0869479599846906,0.00537439367527974
2020-06-17 13:13:25.2410,0.135086059570312,-0.987960815429688,-0.18646240234375,-0.0374496355652809,0.130440026521683,0.023043267428875,0.767806189473911,0.634695795779762,0.0871839905907777,0.00581841986404475
2020-06-17 13:13:25.2510,0.134231567382812,-0.98455810546875,-0.182174682617188,-0.0414486415684223,0.131415814161301,0.0203683879226446,0.767880096494643,0.634567136191883,0.087439803794072,0.0062440199443016
2020-06-17 13:13:25.2610,0.130767822265625,-0.98016357421875,-0.179901123046875,-0.0337984450161457,0.119947180151939,0.0195822231471539,0.767936118370376,0.634460571854407,0.0876928524308669,0.00662302777866971
2020-06-17 13:13:25.2710,0.127777099609375,-0.969284057617188,-0.180038452148438,-0.0325587429106236,0.124662570655346,0.0211601462215185,0.767971696172791,0.634372592799434,0.0879899270987319,0.00697568000770731
2020-06-17 13:13:25.2810,0.128372192382812,-0.95806884765625,-0.183334350585938,-0.028098214417696,0.111202418804169,0.0188149660825729,0.768006761626317,0.634289967321452,0.0882527920645329,0.00730042083877491
2020-06-17 13:13:25.2910,0.132247924804688,-0.954940795898438,-0.188156127929688,-0.0223628301173449,0.117114372551441,0.0173813868314028,0.768023926012066,0.634228125287758,0.088520830991754,0.00761555300144164
2020-06-17 13:13:25.3010,0.138015747070312,-0.959869384765625,-0.189498901367188,-0.0270105786621571,0.103855557739735,0.0138084897771478,0.768036340856045,0.634174497364433,0.0887719369567015,0.00790121674051053
2020-06-17 13:13:25.3110,0.1448974609375,-0.968048095703125,-0.189727783203125,-0.0329281240701675,0.112435199320316,0.0143539058044553,0.76806054447774,0.634104943062065,0.089032892383104,0.00818933908882583
2020-06-17 13:13:25.3210,0.144821166992188,-0.974029541015625,-0.191925048828125,-0.0395402200520039,0.105590872466564,0.0156029276549816,0.768114519552569,0.634000256433012,0.0892862926463813,0.00846862685835271
2020-06-17 13:13:25.3310,0.138351440429688,-0.976806640625,-0.189529418945312,-0.0423951260745525,0.098972387611866,0.0138447089120746,0.768179677569383,0.633883505988058,0.0895282905101635,0.00873893609174558
2020-06-17 13:13:25.3410,0.135910034179688,-0.979385375976562,-0.186981201171875,-0.0379543080925941,0.0948617979884148,0.0115629127249122,0.768250519276865,0.633762948503245,0.0897483292442593,0.00899456131027662
2020-06-17 13:13:25.3510,0.138290405273438,-0.978302001953125,-0.1834716796875,-0.0320713818073273,0.0844144821166992,0.0131501564756036,0.768306343829702,0.633664123928623,0.0899449845318212,0.00922170452665168
2020-06-17 13:13:25.3610,0.141998291015625,-0.9764404296875,-0.177841186523438,-0.0210096780210733,0.0715857669711113,0.00936820171773434,0.768346878243435,0.633589805296908,0.0901030377372501,0.00940616329399737
2020-06-17 13:13:25.3710,0.148162841796875,-0.978378295898438,-0.175888061523438,-0.0196184422820807,0.0674413591623306,0.00803076196461916,0.768386711761654,0.633520073668306,0.0902420947277001,0.00951534479536695
2020-06-17 13:13:25.3810,0.150726318359375,-0.981216430664062,-0.175567626953125,-0.0172812528908253,0.06381706148386,0.00425573159009218,0.768422675401533,0.633452000946701,0.0904054596581159,0.00959204302406333
2020-06-17 13:13:25.3900,0.146469116210938,-0.979248046875,-0.178176879882812,-0.0206120684742928,0.0628189072012901,0.0049271141178906,0.768453670793004,0.633387588145382,0.090587511106217,0.00964478406786369
2020-06-17 13:13:25.4010,0.139633178710938,-0.976776123046875,-0.181488037109375,-0.0239354260265827,0.0651217475533485,0.00485094776377082,0.768500902296883,0.633302337097381,0.0907785254317305,0.00968361070637426
2020-06-17 13:13:25.4110,0.134292602539062,-0.973342895507812,-0.183486938476562,-0.0221151560544968,0.0532445795834064,0.00437264423817396,0.768554900227232,0.633216098968842,0.0909188727356162,0.0097209013921227
2020-06-17 13:13:25.4210,0.134201049804688,-0.968795776367188,-0.184234619140625,-0.015684686601162,0.0377364605665207,0.00378009071573615,0.768584045672876,0.633171407993258,0.0909818321668158,0.00973853441329806
2020-06-17 13:13:25.4310,0.140350341796875,-0.966690063476562,-0.183151245117188,-0.0147650977596641,0.0269589126110077,-0.000786964083090425,0.768598992428242,0.633150598147552,0.0910038995084973,0.00970562609708507
2020-06-17 13:13:25.4410,0.145660400390625,-0.968063354492188,-0.181793212890625,-0.01490225084126,0.0222568362951279,-0.00455666845664382,0.768612893001816,0.633132973490333,0.0910183731009367,0.009618437956696
2020-06-17 13:13:25.4530,0.147430419921875,-0.974212646484375,-0.1815185546875,-0.0175134800374508,0.0214083530008793,-0.00637480849400163,0.768622976077041,0.633106053578026,0.0911447609641893,0.00938499430532319
2020-06-17 13:13:25.4600,0.146041870117188,-0.979873657226562,-0.18402099609375,-0.0218983739614487,0.0280846320092678,-0.00465653697028756,0.768640078228573,0.633085688565895,0.0911450016456366,0.00935573347399587
2020-06-17 13:13:25.4710,0.140777587890625,-0.982742309570312,-0.188644409179688,-0.0275432113558054,0.0343507826328278,7.9095880209934e-05,0.768672164386248,0.633036811800573,0.0912238748365556,0.00925760568025192
2020-06-17 13:13:25.4800,0.131210327148438,-0.984512329101562,-0.1895751953125,-0.0308215618133545,0.036324717104435,0.00176434416789562,0.76872592021113,0.63296573053376,0.0912692061074011,0.00920736563515401
2020-06-17 13:13:25.4910,0.12396240234375,-0.980255126953125,-0.186004638671875,-0.0180663522332907,0.0297688152641058,-0.000201068658498116,0.768774012327886,0.632907156111589,0.0912724413184745,0.00918646655626052
2020-06-17 13:13:25.5010,0.122650146484375,-0.971237182617188,-0.182510375976562,-0.00821665115654469,0.0262465178966522,-0.001929193851538,0.768790435981958,0.632888843337881,0.091265417717501,0.00914336097724246
2020-06-17 13:13:25.5110,0.12615966796875,-0.961837768554688,-0.180282592773438,0.000883636821527034,0.0171238593757153,-0.00889202859252691,0.768782106691403,0.632899535971735,0.0912708988888639,0.00904835973589272
2020-06-17 13:13:25.5210,0.130783081054688,-0.9573974609375,-0.1795654296875,0.00524323154240847,0.0104009751230478,-0.0157816261053085,0.768752990797791,0.632934255421887,0.0912929724445686,0.0088690831109067
2020-06-17 13:13:25.5310,0.133193969726562,-0.960189819335938,-0.177322387695312,0.00435267062857747,0.0113501260057092,-0.0196916796267033,0.768711313744052,0.632982520532635,0.0913306969627388,0.00864572809801613
2020-06-17 13:13:25.5410,0.134963989257812,-0.966293334960938,-0.178466796875,-0.00222773430868983,0.014549913816154,-0.025350097566843,0.768682886803219,0.633011101515889,0.0913922135216622,0.00842782303576496
2020-06-17 13:13:25.5510,0.137710571289062,-0.974609375,-0.180633544921875,-0.00750452140346169,0.0201121922582388,-0.0218898523598909,0.768680504541022,0.633006209563182,0.0914642934563921,0.00822822067856992
2020-06-17 13:13:25.5610,0.138885498046875,-0.9857177734375,-0.1878662109375,-0.0042868903838098,0.0134452348574996,-0.0134897101670504,0.768680133233908,0.63300647834512,0.0914789636621861,0.00807776899291317
2020-06-17 13:13:25.5709,0.134231567382812,-0.993560791015625,-0.18670654296875,-0.00509196380153298,0.0166010800749063,-0.00811598356813192,0.768678247089761,0.633012584446383,0.0914633582306948,0.00795452605040924
2020-06-17 13:13:25.5810,0.129425048828125,-0.998031616210938,-0.182876586914062,-0.00707468716427684,0.0143248774111271,-0.00378115614876151,0.768675783065136,0.633021745278896,0.0914289744090485,0.00785831863509501
2020-06-17 13:13:25.5910,0.127120971679688,-0.990966796875,-0.183547973632812,-0.00688400492072105,0.0161629915237427,0.00180908537004143,0.768680320979649,0.633024738576244,0.0913776739475991,0.00776950404004311
2020-06-17 13:13:25.6010,0.125961303710938,-0.974319458007812,-0.180892944335938,-0.0018628811230883,0.00975462608039379,0.00419208174571395,0.768667569209547,0.633057998649936,0.091265220202962,0.00764185658917521
2020-06-17 13:13:25.6110,0.125259399414062,-0.964218139648438,-0.180526733398438,0.00218512373976409,0.00287328450940549,0.00474335625767708,0.76865578059138,0.633079987394942,0.0912162353725769,0.0075907132689928
2020-06-17 13:13:25.6210,0.125411987304688,-0.965835571289062,-0.179794311523438,0.00028096348978579,0.00676735863089561,0.00313906790688634,0.768622156918856,0.633143155957535,0.0910745966236381,0.00742575298402179
2020-06-17 13:13:25.6310,0.128173828125,-0.971755981445312,-0.181976318359375,-0.0114007266238332,0.00952399615198374,-0.0012817793758586,0.768621370489216,0.633150884135548,0.0910315411269975,0.0073759925228206
2020-06-17 13:13:25.6410,0.134002685546875,-0.975631713867188,-0.187667846679688,-0.0211353786289692,0.0160332955420017,-0.00129509519319981,0.768666499255517,0.633112500546836,0.0909290665989765,0.00723045095689681
2020-06-17 13:13:25.6510,0.13446044921875,-0.980209350585938,-0.191436767578125,-0.0271831508725882,0.0260339975357056,-0.000152599124703556,0.768720799702313,0.633054411559674,0.0908798551971424,0.00716212463014354
2020-06-17 13:13:25.6610,0.130889892578125,-0.982620239257812,-0.188873291015625,-0.0288918353617191,0.0188961923122406,0.00085167889483273,0.768783506969083,0.632984901854874,0.0908378019496279,0.00710824683403241
2020-06-17 13:13:25.6710,0.12786865234375,-0.98016357421875,-0.185516357421875,-0.0251165386289358,0.0204765126109123,0.00297395186498761,0.768813278440418,0.632951541927949,0.0908203219192057,0.00708220242729538
2020-06-17 13:13:25.6810,0.12408447265625,-0.97674560546875,-0.183151245117188,-0.0210541523993015,0.0173275917768478,0.00818282831460238,0.768887320968252,0.632874229324753,0.0907359706612535,0.00703428312092978
2020-06-17 13:13:25.6909,0.120834350585938,-0.974639892578125,-0.178970336914062,-0.013047625310719,0.0168109387159348,0.0136505644768476,0.768911289674612,0.632857220122447,0.0906529154908051,0.00701544459258148
2020-06-17 13:13:25.7010,0.119949340820312,-0.9739990234375,-0.177276611328125,-0.00889256130903959,0.0194980669766665,0.0151675008237362,0.768914300202999,0.63286023535207,0.0906070252636632,0.00700631331897421
2020-06-17 13:13:25.7110,0.121017456054688,-0.974014282226562,-0.176422119140625,-0.00347409350797534,0.0176365170627832,0.0139594916254282,0.768902699061,0.632896047275631,0.090458347349417,0.00696563811897575
2020-06-17 13:13:25.7210,0.123153686523438,-0.975845336914062,-0.1763916015625,0.000128896994283423,0.0203042067587376,0.0127546768635511,0.768885519281184,0.63292864802831,0.0903785733165704,0.00693528874827417
2020-06-17 13:13:25.7310,0.125839233398438,-0.977798461914062,-0.174880981445312,0.00110414659138769,0.0262017771601677,0.00793914962559938,0.768869352063629,0.632952099995287,0.0903526181695921,0.00692552948963965
2020-06-17 13:13:25.7410,0.1297607421875,-0.9788818359375,-0.180587768554688,-0.00259445142000914,0.0342506468296051,0.0048030111938715,0.768831005471566,0.633002896202707,0.0903244993175045,0.00690675376775383
2020-06-17 13:13:25.7510,0.131301879882812,-0.982818603515625,-0.186935424804688,-0.00964437145739794,0.046164833009243,0.00328181334771216,0.768818390076487,0.633013041469271,0.0903590838944246,0.00692880709664071
2020-06-17 13:13:25.7610,0.125534057617188,-0.987060546875,-0.183319091796875,-0.0131855765357614,0.0517971515655518,0.00680224597454071,0.768815024964673,0.633009028710418,0.0904110507975872,0.00699062610488591
2020-06-17 13:13:25.7710,0.12030029296875,-0.985488891601562,-0.181198120117188,-0.0124896932393312,0.0530602894723415,0.0110244220122695,0.768805787206806,0.633014754443988,0.0904422238601951,0.00708423296927283
2020-06-17 13:13:25.7800,0.1212158203125,-0.975982666015625,-0.1800537109375,-0.00592952826991677,0.0477779097855091,0.0106694223359227,0.768783966996677,0.633038005062573,0.0904569880109467,0.00718537091855583
2020-06-17 13:13:25.7910,0.123565673828125,-0.96771240234375,-0.176666259765625,0.0015792545164004,0.0441096723079681,0.0117325559258461,0.768744350823352,0.63308467908784,0.0904616083847887,0.00725324684997306
2020-06-17 13:13:25.8010,0.128387451171875,-0.965972900390625,-0.176345825195312,0.00241122604347765,0.0412414446473122,0.0130473589524627,0.768689353596783,0.633153158986039,0.0904461148977931,0.00729761830015423
2020-06-17 13:13:25.8110,0.134017944335938,-0.966812133789062,-0.17626953125,-0.00107698235660791,0.0410651452839375,0.00630370248109102,0.768656544717023,0.633190946025054,0.09045843957321,0.00732207931972517
2020-06-17 13:13:25.8210,0.135986328125,-0.9678955078125,-0.176559448242188,-0.00847151502966881,0.0436113923788071,0.00661848811432719,0.76864510299244,0.633199063000915,0.0904963505931218,0.0073527402940909
2020-06-17 13:13:25.8310,0.133743286132812,-0.972808837890625,-0.179443359375,-0.00881985668092966,0.0426254905760288,0.00554789695888758,0.768636939494707,0.633203697546073,0.09053135940666,0.00737601668747576
2020-06-17 13:13:25.8410,0.128509521484375,-0.980010986328125,-0.180908203125,-0.00682195322588086,0.0465930700302124,0.00466505903750658,0.768626716486709,0.633210711321556,0.0905647684300388,0.00742889559241056
2020-06-17 13:13:25.8510,0.123031616210938,-0.986831665039062,-0.17999267578125,-0.00984277669340372,0.0528190061450005,0.00718760536983609,0.768616628625991,0.633216359644263,0.0906042420987665,0.00750942023000717
2020-06-17 13:13:25.8610,0.120651245117188,-0.988357543945312,-0.179763793945312,-0.00397050706669688,0.0509753003716469,0.00994371064007282,0.768598003486229,0.633230940720888,0.0906549411263578,0.0075740610043955
2020-06-17 13:13:25.8710,0.122344970703125,-0.983596801757812,-0.179779052734375,0.00125408254098147,0.0544275566935539,0.00888963136821985,0.768559561652791,0.633268202922343,0.0907148720880022,0.0076416844762119
2020-06-17 13:13:25.8810,0.128402709960938,-0.978424072265625,-0.176788330078125,0.00777749577537179,0.0564496926963329,0.00653885956853628,0.768502438539894,0.633325905260901,0.0907900721056212,0.00771119256354153
2020-06-17 13:13:25.8910,0.133209228515625,-0.97503662109375,-0.175064086914062,0.00889628939330578,0.0595392249524593,0.00763501645997167,0.768434560414238,0.63339538237807,0.0908743469518812,0.00777618217279663
2020-06-17 13:13:25.9010,0.134933471679688,-0.9747314453125,-0.176101684570312,0.00183891272172332,0.0681252554059029,0.00611781375482678,0.768376881116322,0.633447774901219,0.0909893621090941,0.00786263452215117
2020-06-17 13:13:25.9110,0.135345458984375,-0.976715087890625,-0.176528930664062,-0.00653406558558345,0.0633054673671722,0.00715351710096002,0.768345232174858,0.633468312939208,0.0911050355085395,0.00796072867926033
2020-06-17 13:13:25.9210,0.133407592773438,-0.977874755859375,-0.178756713867188,-0.0141951814293861,0.0654051080346107,0.00901533290743828,0.768342508980783,0.633455380897787,0.0912079140685017,0.00807376715215205
2020-06-17 13:13:25.9310,0.131668090820312,-0.977645874023438,-0.179336547851562,-0.01884426176548,0.0573764741420746,0.0118641164153814,0.768352380437993,0.63343604760028,0.0912485360583069,0.00819132120121941
2020-06-17 13:13:25.9410,0.130996704101562,-0.97894287109375,-0.179519653320312,-0.0178498364984989,0.0508277602493763,0.0115637117996812,0.768366685897915,0.633414266395282,0.091270227734639,0.00829148107691278
2020-06-17 13:13:25.9510,0.13250732421875,-0.980819702148438,-0.178863525390625,-0.0201058015227318,0.0509659796953201,0.0113663710653782,0.768387465812427,0.633382960417058,0.0913053232946886,0.00837053007468162
2020-06-17 13:13:25.9610,0.135467529296875,-0.981185913085938,-0.177642822265625,-0.0160644538700581,0.047129962593317,0.00919216684997082,0.768397388924154,0.633364857443545,0.0913411977224967,0.00843775139950972
2020-06-17 13:13:25.9710,0.135772705078125,-0.979400634765625,-0.175262451171875,-0.0186391975730658,0.0537963844835758,0.00982013996690512,0.768410959803046,0.633338973955846,0.0914001417239629,0.00850617516621626
2020-06-17 13:13:25.9810,0.134292602539062,-0.980682373046875,-0.177047729492188,-0.0233719013631344,0.0590649172663689,0.00588878197595477,0.768436943558815,0.633293784681807,0.0914876758096448,0.00858202961594495
2020-06-17 13:13:25.9910,0.129959106445312,-0.981201171875,-0.178466796875,-0.0278729107230902,0.0593155212700367,0.00446052849292755,0.768478455877,0.633227516749689,0.0915899970965856,0.00866298538454442
2020-06-17 13:13:26.0010,0.1278076171875,-0.981613159179688,-0.178436279296875,-0.0319893583655357,0.0563980266451836,0.00252201361581683,0.768531836036011,0.633147477840864,0.091688180410399,0.00873875711416157
2020-06-17 13:13:26.0110,0.129318237304688,-0.98089599609375,-0.176895141601562,-0.034392062574625,0.054247260093689,0.00374786648899317,0.768594175974925,0.633058045501403,0.0917764085858778,0.0088087746280235
2020-06-17 13:13:26.0210,0.131668090820312,-0.979248046875,-0.175323486328125,-0.0291384439915419,0.0516216494143009,0.00384853407740593,0.768645994613502,0.632983127907963,0.0918538649270519,0.00886353464674618
2020-06-17 13:13:26.0310,0.136184692382812,-0.979232788085938,-0.177841186523438,-0.0183324012905359,0.0505113787949085,0.00394520675763488,0.76867145165361,0.63294324682909,0.0919118246564276,0.00890293179281433
2020-06-17 13:13:26.0410,0.13763427734375,-0.978225708007812,-0.1812744140625,-0.0154039897024632,0.054419033229351,0.00667015323415399,0.768675485384725,0.632925658410264,0.0919933283945463,0.0089630700870257
2020-06-17 13:13:26.0509,0.136215209960938,-0.975738525390625,-0.18109130859375,-0.0139645515009761,0.0574153549969196,0.00842384435236454,0.76867307379962,0.632917580621161,0.0920618943715361,0.00903600358698878
2020-06-17 13:13:26.0610,0.13238525390625,-0.971267700195312,-0.181671142578125,-0.0134026240557432,0.0595818385481834,0.00927179493010044,0.768669617399576,0.632910101808772,0.0921334441465869,0.00912418680687277
2020-06-17 13:13:26.0709,0.127304077148438,-0.96490478515625,-0.182144165039062,-0.0123378923162818,0.057647317647934,0.00766803976148367,0.768664693078556,0.632903221717498,0.0922130771824696,0.00921140329167321
2020-06-17 13:13:26.0800,0.124542236328125,-0.963836669921875,-0.183120727539062,-0.00825819652527571,0.0492114871740341,0.00786378234624863,0.768652941115237,0.632908052102162,0.0922714423886423,0.00927548482087207
2020-06-17 13:13:26.0910,0.126922607421875,-0.966415405273438,-0.188186645507812,-0.00364533485844731,0.0467552542686462,0.00895194988697767,0.768627767973891,0.632932912497132,0.0923056922845917,0.00932425596143296
2020-06-17 13:13:26.1010,0.13165283203125,-0.969696044921875,-0.189224243164062,-0.0040229712612927,0.0436851643025875,0.00935648381710052,0.768601065334195,0.632961941946264,0.0923248165638997,0.0093653970122275
2020-06-17 13:13:26.1110,0.136306762695312,-0.973876953125,-0.187728881835938,-0.00577399972826242,0.0395671166479588,0.00989204552024603,0.768584418065409,0.632980295093189,0.0923337209119231,0.00940331395601092
2020-06-17 13:13:26.1210,0.141006469726562,-0.977691650390625,-0.190078735351562,-0.00508317537605762,0.0372757315635681,0.00985822360962629,0.768568553021598,0.633000516410524,0.0923251894954006,0.00942257475088966
2020-06-17 13:13:26.1300,0.142745971679688,-0.97784423828125,-0.188095092773438,-0.00590609246864915,0.0394994728267193,0.00904036685824394,0.768558261830449,0.633011578394391,0.0923318708368099,0.00945332843900663
2020-06-17 13:13:26.1409,0.14239501953125,-0.978256225585938,-0.184371948242188,-0.0100656831637025,0.0392813608050346,0.0070440610870719,0.768554727947397,0.633013741867992,0.0923444503127871,0.00947286928105125
2020-06-17 13:13:26.1510,0.137847900390625,-0.975616455078125,-0.185928344726562,-0.0115698371082544,0.042494997382164,0.00435293698683381,0.768553227730999,0.633010752238026,0.0923750031258037,0.00949644632582864
2020-06-17 13:13:26.1610,0.131118774414062,-0.973602294921875,-0.186660766601562,-0.0123149892315269,0.0444095432758331,0.00572180142626166,0.768556847548267,0.632999635150587,0.0924172632517668,0.00953328059731815
2020-06-17 13:13:26.1710,0.125213623046875,-0.975250244140625,-0.182693481445312,-0.0100457100197673,0.0402241200208664,0.00722595490515232,0.768572040601952,0.632977781075103,0.092437686674051,0.00956144092385757
2020-06-17 13:13:26.1810,0.123764038085938,-0.977279663085938,-0.18212890625,-0.00896206963807344,0.0395940132439137,0.00881106872111559,0.768569086391862,0.632979307559337,0.0924485214640783,0.0095930455845329
2020-06-17 13:13:26.1900,0.124404907226562,-0.979385375976562,-0.184066772460938,-0.00697055784985423,0.0338426530361176,0.0133205987513065,0.768580588907303,0.632963203234794,0.0924626983816758,0.0095974534972544
2020-06-17 13:13:26.2010,0.127288818359375,-0.981552124023438,-0.18560791015625,-0.0165030770003796,0.0311994645744562,0.0127112679183483,0.768604855919756,0.632935191194748,0.092454898917407,0.00957657924372197
2020-06-17 13:13:26.2110,0.132339477539062,-0.984542846679688,-0.190994262695312,-0.0208895690739155,0.0254539605230093,0.0124761108309031,0.768642358868948,0.632892349821436,0.0924378945317108,0.00956207845733612
2020-06-17 13:13:26.2210,0.135604858398438,-0.983230590820312,-0.193649291992188,-0.0246377028524876,0.0308122411370277,0.0105525096878409,0.76868889346024,0.632839035050763,0.0924168085388733,0.00955375770988903
2020-06-17 13:13:26.2310,0.136245727539062,-0.977584838867188,-0.194717407226562,-0.0240563340485096,0.0313296914100647,0.00788455456495285,0.768739878927399,0.632779053902256,0.0924022455841945,0.00956517120870059
2020-06-17 13:13:26.2410,0.13507080078125,-0.971389770507812,-0.194366455078125,-0.0275583900511265,0.0327701978385448,0.00497984467074275,0.768795652027565,0.632712436583313,0.0923929715012684,0.00957897872865715
2020-06-17 13:13:26.2510,0.1341552734375,-0.96826171875,-0.19403076171875,-0.0286873038858175,0.0311624463647604,0.00439900951460004,0.768853404749452,0.63264260056452,0.0923894519737854,0.00959015746071669
2020-06-17 13:13:26.2610,0.13336181640625,-0.971099853515625,-0.19317626953125,-0.0299051683396101,0.033188845962286,0.00468476675450802,0.768913768040614,0.632569955189975,0.0923841210620301,0.00959391912280655
2020-06-17 13:13:26.2710,0.130828857421875,-0.97576904296875,-0.190032958984375,-0.0292710699141026,0.0317802987992764,0.0068403291516006,0.76897335523738,0.632499370598924,0.0923704964541015,0.00960294286944107
2020-06-17 13:13:26.2810,0.129318237304688,-0.977310180664062,-0.188369750976562,-0.028512867167592,0.0229908023029566,0.0099274655804038,0.769032430957764,0.632434345894081,0.0923242734140522,0.00959931285486912
2020-06-17 13:13:26.2910,0.130905151367188,-0.976852416992188,-0.194183349609375,-0.0275120511651039,0.0160386208444834,0.0142955826595426,0.769100099046248,0.632363791352857,0.0922457349960043,0.00958109638497231
2020-06-17 13:13:26.3010,0.132568359375,-0.9754638671875,-0.195297241210938,-0.0311848167330027,0.0160085279494524,0.0145046403631568,0.769188154064121,0.632269801239146,0.0921595130457696,0.00954495906791314
2020-06-17 13:13:26.3110,0.134307861328125,-0.977325439453125,-0.19195556640625,-0.029274532571435,0.0164625961333513,0.0149943958967924,0.769277200585051,0.63217417516132,0.09207578861862,0.00951052413861238
2020-06-17 13:13:26.3210,0.1337890625,-0.976806640625,-0.188766479492188,-0.0358040705323219,0.0163584668189287,0.012472914531827,0.76938545236379,0.632053824670012,0.0920008556784178,0.00947791988861043
2020-06-17 13:13:26.3310,0.131988525390625,-0.97625732421875,-0.184860229492188,-0.041988730430603,0.0214072875678539,0.00791704561561346,0.769506498550051,0.631914622270475,0.0919485966965025,0.00944004319627724
2020-06-17 13:13:26.3410,0.13433837890625,-0.975433349609375,-0.180816650390625,-0.0382880009710789,0.011936554685235,0.00231961323879659,0.769606358014703,0.631804539324492,0.0918750307044429,0.00938384384824485
2020-06-17 13:13:26.3510,0.137115478515625,-0.9736328125,-0.180465698242188,-0.0297568310052156,0.0114145744591951,-0.00060427124844864,0.769684010130723,0.631722614367385,0.091797758913645,0.0092862535156561
2020-06-17 13:13:26.3610,0.1380615234375,-0.973648071289062,-0.180770874023438,-0.0150394029915333,-0.00229990598745644,-0.00570129510015249,0.769727412689334,0.631686163683506,0.0916986265527324,0.00914672912801946
2020-06-17 13:13:26.3710,0.135086059570312,-0.97613525390625,-0.184890747070312,-0.00962892547249794,0.00160641875118017,-0.00486745964735746,0.769767896763601,0.631654170645879,0.0915945688493881,0.00899048247335211
2020-06-17 13:13:26.3810,0.130020141601562,-0.978973388671875,-0.186111450195312,-0.00990296434611082,0.00387410051189363,-0.00422696908935905,0.769783455524878,0.631648274058848,0.0915166432711579,0.00886529655655846
2020-06-17 13:13:26.3910,0.123779296875,-0.97747802734375,-0.188690185546875,-0.0136343194171786,0.00918098166584969,-0.00170069467276335,0.769804453854707,0.631635057416525,0.0914416587909583,0.00875671773194854
2020-06-17 13:13:26.4010,0.117279052734375,-0.970291137695312,-0.193618774414062,-0.0183142926543951,0.0149877378717065,-0.000642887083813548,0.769834674717153,0.631607852905,0.0913833384459508,0.0086705943477382
2020-06-17 13:13:26.4110,0.115875244140625,-0.966049194335938,-0.1951904296875,-0.0190695654600859,0.0211281888186932,-0.00287062139250338,0.769868069886164,0.631572720166744,0.0913514851167902,0.00860001615634025
2020-06-17 13:13:26.4210,0.116806030273438,-0.968185424804688,-0.195785522460938,-0.0196045935153961,0.0282137952744961,-0.00247167982161045,0.769895098393862,0.631542080339288,0.0913413809279659,0.00853758513879732
2020-06-17 13:13:26.4310,0.121185302734375,-0.97210693359375,-0.194381713867188,-0.0153483301401138,0.0273743662983179,-0.00169110728893429,0.769909425688803,0.631522368107226,0.0913627267905259,0.00847507930211892
2020-06-17 13:13:26.4410,0.124847412109375,-0.974090576171875,-0.192367553710938,-0.0172852464020252,0.0314141139388084,0.000174703367520124,0.769929899805282,0.631496862854372,0.0913692092824368,0.00844566078038033
2020-06-17 13:13:26.4500,0.126495361328125,-0.973602294921875,-0.190963745117188,-0.0208120718598366,0.03112250007689,0.00525468308478594,0.769961899163287,0.631459581665402,0.0913579797277439,0.00843742258539214
2020-06-17 13:13:26.4610,0.1273193359375,-0.9708251953125,-0.190216064453125,-0.0185891296714544,0.0278161838650703,0.00731969811022282,0.769994367709066,0.631424675673027,0.0913261057246809,0.00843178870066056
2020-06-17 13:13:26.4710,0.126602172851562,-0.969573974609375,-0.187362670898438,-0.0194477345794439,0.0286175291985273,0.0130375046283007,0.770036620562363,0.631384444101116,0.0912449542274291,0.00846434096986008
2020-06-17 13:13:26.4810,0.124526977539062,-0.968902587890625,-0.186447143554688,-0.0131826475262642,0.0227338075637817,0.0126614663749933,0.770075902936177,0.631352619382328,0.091130156064665,0.00850108062159863
2020-06-17 13:13:26.4910,0.124176025390625,-0.970611572265625,-0.186553955078125,-0.00956554152071476,0.0202703848481178,0.0132449651136994,0.770106484247973,0.63133402208382,0.0909983241017231,0.00852411223363174
2020-06-17 13:13:26.5010,0.126174926757812,-0.973175048828125,-0.187332153320312,-0.00861985329538584,0.0264427922666073,0.0118883512914181,0.770121739121502,0.63132970093724,0.0908973806146481,0.0085429412011065
2020-06-17 13:13:26.5110,0.131546020507812,-0.978424072265625,-0.187698364257812,-0.00587013969197869,0.0286976918578148,0.00627201050519943,0.770120570158855,0.631337366376581,0.0908536878543613,0.00854661559592649
2020-06-17 13:13:26.5210,0.133926391601562,-0.98138427734375,-0.186767578125,-0.0106481164693832,0.0311477985233068,0.000967260100878775,0.7701219088618,0.631338080317434,0.0908394503555326,0.00852455812694719
2020-06-17 13:13:26.5310,0.132110595703125,-0.979995727539062,-0.191741943359375,-0.0121296336874366,0.024120781570673,-0.000701476645190269,0.770129204667347,0.631330901631197,0.09083194750187,0.00847691435590622
2020-06-17 13:13:26.5410,0.132110595703125,-0.979995727539062,-0.191741943359375,-0.0135608157142997,0.0302553735673428,-0.00321603333577514,0.770139067731151,0.631319519713872,0.0908319566412702,0.00842828779515928
2020-06-17 13:13:26.5500,0.124618530273438,-0.9801025390625,-0.1881103515625,-0.0140598928555846,0.0274236351251602,-0.00148125016130507,0.770150452332876,0.631306643034962,0.0908294564471062,0.00837932413249326
2020-06-17 13:13:26.5610,0.122650146484375,-0.974624633789062,-0.18475341796875,-0.0101288007572293,0.0219700131565332,0.00224504480138421,0.77015974280841,0.631301458051802,0.0907914958175485,0.00832729885169177
2020-06-17 13:13:26.5709,0.1270751953125,-0.972946166992188,-0.183807373046875,-0.00994211249053478,0.0217199418693781,0.00605203351005912,0.770164926847335,0.63130391464335,0.090734332111904,0.00828455106982237
2020-06-17 13:13:26.5810,0.1317138671875,-0.973037719726562,-0.181655883789062,-0.00388821517117321,0.0191984623670578,0.00424747541546822,0.770156390630691,0.631323455109768,0.090675569342602,0.00823226113323025
2020-06-17 13:13:26.5910,0.136703491210938,-0.974456787109375,-0.180252075195312,-0.00283333705738187,0.0249841790646315,0.0019995013717562,0.770137483713627,0.631352504142036,0.0906383599079188,0.00818287272459103
2020-06-17 13:13:26.6010,0.13653564453125,-0.977066040039062,-0.184860229492188,-0.00849495083093643,0.0281432215124369,0.00448103481903672,0.770129499494344,0.631365379295282,0.0906188103221652,0.00815739245784355
2020-06-17 13:13:26.6110,0.131256103515625,-0.982345581054688,-0.18731689453125,-0.0176069568842649,0.0333174765110016,0.00597639987245202,0.770148813665444,0.631344217905854,0.0906036136462878,0.00814054794160814
2020-06-17 13:13:26.6210,0.127578735351562,-0.988616943359375,-0.1917724609375,-0.0245450232177973,0.0397772416472435,0.00511140516027808,0.770192231101371,0.631291794515561,0.0905994195514997,0.00814509087404571
2020-06-17 13:13:26.6310,0.124191284179688,-0.985397338867188,-0.191665649414062,-0.024008397012949,0.0320886932313442,0.00663712993264198,0.77024167136178,0.631232996413764,0.0905881870351627,0.008151828383636
2020-06-17 13:13:26.6410,0.121688842773438,-0.976058959960938,-0.18914794921875,-0.0236075911670923,0.0316396839916706,0.0074360785074532,0.770287061654299,0.631180804889782,0.0905659583203951,0.00815115821101431
2020-06-17 13:13:26.6510,0.124130249023438,-0.970382690429688,-0.185501098632812,-0.0209108740091324,0.0320732481777668,0.00332255964167416,0.770324541625513,0.631137427461776,0.0905508964964665,0.00813531622377741
2020-06-17 13:13:26.6610,0.12774658203125,-0.969985961914062,-0.180892944335938,-0.0164729822427034,0.0292268618941307,-0.00228951964527369,0.770349806274072,0.63110722793717,0.0905494673553116,0.00810165295659484
2020-06-17 13:13:26.6710,0.129592895507812,-0.969818115234375,-0.182449340820312,-0.0125778438523412,0.0264161601662636,-0.00324399652890861,0.770356532479006,0.63109929223456,0.0905529365129813,0.0080412621419528
2020-06-17 13:13:26.6810,0.128158569335938,-0.9705810546875,-0.184280395507812,-0.0101674161851406,0.0310900080949068,0.00136273948010057,0.770354356071047,0.631099808956753,0.0905725769167483,0.00798783623842014
2020-06-17 13:13:26.6909,0.12615966796875,-0.9703369140625,-0.18634033203125,-0.0120785003527999,0.0374757349491119,6.33832314633764e-05,0.77035963097414,0.631089296645425,0.0906020545347606,0.00797535823958567
2020-06-17 13:13:26.7010,0.1268310546875,-0.971511840820312,-0.189697265625,-0.0194256287068129,0.0398334339261055,0.000263652938883752,0.770379290082891,0.631060928886524,0.0906328036549256,0.0079717216400114
2020-06-17 13:13:26.7110,0.128173828125,-0.977294921875,-0.192169189453125,-0.0199108570814133,0.0430036596953869,0.00179363903589547,0.770404658972147,0.631025103131761,0.0906654753639371,0.00798449927001221
2020-06-17 13:13:26.7210,0.126937866210938,-0.983596801757812,-0.191162109375,-0.018555574119091,0.0444470942020416,0.00342216202989221,0.770431299626355,0.630987176921688,0.0907002341461354,0.00801639833582472
2020-06-17 13:13:26.7310,0.124969482421875,-0.984115600585938,-0.188461303710938,-0.0210317820310593,0.0428145751357079,0.0077141122892499,0.770460919486879,0.630946716532055,0.090726657505235,0.0080551883143371
2020-06-17 13:13:26.7410,0.124465942382812,-0.979049682617188,-0.186981201171875,-0.0191766247153282,0.0448588170111179,0.0108696920797229,0.770483109753456,0.63091461418629,0.0907562721972099,0.00811333764083306
2020-06-17 13:13:26.7510,0.125381469726562,-0.972427368164062,-0.185012817382812,-0.0179901849478483,0.0470729693770409,0.0115458685904741,0.770502294096932,0.630887189396253,0.0907778228132285,0.00818266046899587
2020-06-17 13:13:26.7610,0.126296997070312,-0.968978881835938,-0.182662963867188,-0.0188192278146744,0.0483326464891434,0.0117408121004701,0.770521996798112,0.630858316905788,0.09080498158688,0.00825177314605245
2020-06-17 13:13:26.7700,0.128555297851562,-0.970611572265625,-0.182281494140625,-0.0143320672214031,0.0511039309203625,0.00871892273426056,0.770533106509933,0.630837538587223,0.0908494202075185,0.00831351485976611
2020-06-17 13:13:26.7800,0.130691528320312,-0.973495483398438,-0.18511962890625,-0.0103618269786239,0.0486548878252506,0.00416172202676535,0.770531035443187,0.630831616302494,0.0909033242328937,0.00836546086251161
2020-06-17 13:13:26.7910,0.12994384765625,-0.97802734375,-0.186843872070312,-0.00644591497257352,0.043138150125742,0.00560675282031298,0.770515780354154,0.63084376775406,0.0909448937050363,0.00840233420366583
2020-06-17 13:13:26.8010,0.128143310546875,-0.979766845703125,-0.188323974609375,-0.00289831822738051,0.0422952584922314,0.00620702933520079,0.770489677834624,0.63087030410819,0.0909788735190636,0.00843565752860402
2020-06-17 13:13:26.8110,0.127883911132812,-0.97869873046875,-0.190155029296875,-0.00933224894106388,0.0465440675616264,0.00615509785711765,0.770476619558061,0.630880236043284,0.0910166725930674,0.00847772342307752
2020-06-17 13:13:26.8200,0.127883911132812,-0.97869873046875,-0.190155029296875,-0.0193230975419283,0.0522456280887127,0.0076131783425808,0.77049021769966,0.630856816754524,0.0910583687438278,0.0085366659295697
2020-06-17 13:13:26.8310,0.130035400390625,-0.979400634765625,-0.193557739257812,-0.0212498940527439,0.0468894764780998,0.00943451467901468,0.770513680010584,0.630822135522064,0.0910943584386007,0.00859768065182664
2020-06-17 13:13:26.8410,0.132705688476562,-0.978317260742188,-0.191390991210938,-0.0229487251490355,0.0488082841038704,0.00632154522463679,0.770545133651832,0.630776471103125,0.0911379419042271,0.00866695180732315
2020-06-17 13:13:26.8510,0.133056640625,-0.977386474609375,-0.193572998046875,-0.0300479140132666,0.0492309294641018,0.0062123560346663,0.770593444692382,0.630708031577488,0.0911963800234454,0.00873740072323997
2020-06-17 13:13:26.8610,0.127685546875,-0.979080200195312,-0.192276000976562,-0.0357065983116627,0.055073905736208,0.00541394017636776,0.77066317988812,0.630612031943962,0.0912640983852217,0.00880867062453481
2020-06-17 13:13:26.8710,0.122802734375,-0.979156494140625,-0.187973022460938,-0.0373961068689823,0.0543793514370918,0.00784487370401621,0.770740839767102,0.630505549245131,0.0913357581319487,0.00889323184557354
2020-06-17 13:13:26.8810,0.121536254882812,-0.974700927734375,-0.1844482421875,-0.0417908579111099,0.0604377761483192,0.0117405457422137,0.770822258319691,0.630392717149037,0.0914163844827747,0.00900626962086714
2020-06-17 13:13:26.8910,0.123703002929688,-0.969085693359375,-0.184768676757812,-0.0400478169322014,0.0561889708042145,0.0133307194337249,0.77091061079524,0.630275031472706,0.0914715392550968,0.00911988879828295
2020-06-17 13:13:26.9000,0.130447387695312,-0.971237182617188,-0.1868896484375,-0.0305999871343374,0.0493142865598202,0.0170397032052279,0.770981701863992,0.63018222071691,0.0915015553660041,0.00922222580555861
2020-06-17 13:13:26.9100,0.1370849609375,-0.976150512695312,-0.186294555664062,-0.0198213756084442,0.0444066114723682,0.0154175721108913,0.771023125509549,0.630128797962511,0.0915118517838425,0.00930692703847801
2020-06-17 13:13:26.9200,0.141143798828125,-0.976486206054688,-0.18524169921875,-0.0161803010851145,0.0420869998633862,0.0138521660119295,0.771038439236708,0.6301086119439,0.0915149221695937,0.00937450765890828
2020-06-17 13:13:26.9310,0.14044189453125,-0.97265625,-0.187744140625,-0.0194831546396017,0.0452204756438732,0.0114209661260247,0.771060254996299,0.630078634094834,0.0915317996704868,0.0094301469400986
2020-06-17 13:13:26.9410,0.135498046875,-0.969833374023438,-0.18939208984375,-0.0253847185522318,0.0481901653110981,0.0068571069277823,0.771099140667192,0.630024031780077,0.0915743252186119,0.00948565246311086
2020-06-17 13:13:26.9510,0.133132934570312,-0.971786499023438,-0.19091796875,-0.0286835767328739,0.0448172725737095,0.00465334113687277,0.771151387638607,0.629952740498143,0.0916201027308849,0.00953094211044095
2020-06-17 13:13:26.9610,0.1317138671875,-0.975418090820312,-0.19195556640625,-0.0274577233940363,0.0409253276884556,0.00370498979464173,0.771199204733551,0.629890666279192,0.0916410383106895,0.0095632238305448
2020-06-17 13:13:26.9710,0.13079833984375,-0.9786376953125,-0.193313598632812,-0.0228930655866861,0.0341457203030586,0.00191268231719732,0.771241596356634,0.629837097440162,0.0916515161759642,0.00957237275020645
2020-06-17 13:13:26.9810,0.129531860351562,-0.978302001953125,-0.1915283203125,-0.0204434897750616,0.0385194309055805,0.00390312890522182,0.771271519103174,0.629798889611895,0.0916616726003137,0.00957811254993351
2020-06-17 13:13:26.9910,0.127426147460938,-0.972442626953125,-0.190444946289062,-0.0214504301548004,0.0392970703542233,0.00538650946691632,0.771301363287372,0.629757452572726,0.0916923556587037,0.00960571881276001
2020-06-17 13:13:27.0010,0.127227783203125,-0.967727661132812,-0.194000244140625,-0.0276398826390505,0.0514695830643177,0.00700304843485355,0.771334637143083,0.629703916617743,0.0917761736964661,0.0096430742638532
2020-06-17 13:13:27.0110,0.127044677734375,-0.970169067382812,-0.198760986328125,-0.0348759591579437,0.0501848720014095,0.0077982684597373,0.771394463572347,0.629618344627873,0.0918563695340391,0.00968137665904668
2020-06-17 13:13:27.0210,0.1263427734375,-0.979080200195312,-0.19720458984375,-0.0429764948785305,0.0492074936628342,0.0065822689794004,0.771483335171676,0.629500093030115,0.0919143288418884,0.00973922897411115
2020-06-17 13:13:27.0310,0.125274658203125,-0.98828125,-0.1917724609375,-0.0506570525467396,0.0544350109994411,0.00720225274562836,0.771595349721834,0.629352526052827,0.0919768988096577,0.00981143842282213
2020-06-17 13:13:27.0410,0.124176025390625,-0.986679077148438,-0.187942504882812,-0.0590816959738731,0.056177519261837,0.00641608750447631,0.771731142072131,0.62917383579501,0.0920501400720005,0.00990456560191122
2020-06-17 13:13:27.0509,0.123779296875,-0.981155395507812,-0.1890869140625,-0.0584425367414951,0.0593903549015522,0.010594854131341,0.77187070307561,0.628989727360639,0.092125917582469,0.0100177800904481
2020-06-17 13:13:27.0610,0.122848510742188,-0.97637939453125,-0.186660766601562,-0.0551117211580276,0.0576507784426212,0.0135781271383166,0.772002558923866,0.628815501468239,0.0921959309774437,0.0101500955390836
2020-06-17 13:13:27.0709,0.122726440429688,-0.975479125976562,-0.184677124023438,-0.0531170144677162,0.0599866360425949,0.0128406975418329,0.77218671327907,0.628569045372087,0.0923125360067486,0.0103455657792972
2020-06-17 13:13:27.0800,0.126266479492188,-0.975845336914062,-0.183914184570312,-0.0514642558991909,0.0620359405875206,0.010063286870718,0.772242995091591,0.628492040782513,0.0923590650874751,0.0104074156815114
2020-06-17 13:13:27.0900,0.128952026367188,-0.975921630859375,-0.186996459960938,-0.0428369455039501,0.062301192432642,0.00710424827411771,0.772341073507517,0.628354916266311,0.0924589021380478,0.0105222047423829
2020-06-17 13:13:27.1010,0.130523681640625,-0.9759521484375,-0.190444946289062,-0.0466340817511082,0.0615840032696724,0.0101972436532378,0.772438193960582,0.628219242813185,0.092555999963393,0.0106398468465971
2020-06-17 13:13:27.1110,0.130157470703125,-0.97271728515625,-0.195404052734375,-0.0461754836142063,0.0598015487194061,0.00964064337313175,0.772540636488616,0.628078944340544,0.0926397828852475,0.0107552441536959
2020-06-17 13:13:27.1210,0.131576538085938,-0.969802856445312,-0.196426391601562,-0.047349140048027,0.0514283031225204,0.011730425991118,0.77263714922731,0.627951256019703,0.0926853802023234,0.0108846678370745
2020-06-17 13:13:27.1310,0.130874633789062,-0.967926025390625,-0.194671630859375,-0.0466157048940659,0.0529897138476372,0.012001003138721,0.772776672324885,0.627768701334583,0.0927390370351839,0.011051848033478
2020-06-17 13:13:27.1409,0.1317138671875,-0.966033935546875,-0.191818237304688,-0.0398842990398407,0.0492727421224117,0.0133759928867221,0.772846375183545,0.627680032563051,0.0927470631482972,0.0111462713347362
2020-06-17 13:13:27.1510,0.132095336914062,-0.969680786132812,-0.18780517578125,-0.0320705845952034,0.0457744114100933,0.0107157612219453,0.77288920909085,0.627623041436021,0.0927649461876265,0.0112362399549725
2020-06-17 13:13:27.1610,0.132247924804688,-0.974685668945312,-0.188522338867188,-0.0308788195252419,0.049326803535223,0.0100249368697405,0.772924036873014,0.62757566913587,0.092785687881622,0.0113149837349302
2020-06-17 13:13:27.1710,0.130599975585938,-0.981155395507812,-0.192428588867188,-0.0368166044354439,0.0476364940404892,0.00895887427031994,0.772992301638931,0.627484724768245,0.0928230685889613,0.0113885788049053
2020-06-17 13:13:27.1810,0.12847900390625,-0.984771728515625,-0.195465087890625,-0.0476514101028442,0.0507366806268692,0.00917006283998489,0.773111657814895,0.627329481512592,0.0928684535333871,0.0114689369238765
2020-06-17 13:13:27.1910,0.128280639648438,-0.984039306640625,-0.195465087890625,-0.0577503815293312,0.0467368774116039,0.00933544524013996,0.773256707755195,0.627144303417503,0.0929013926805145,0.0115506640758764
2020-06-17 13:13:27.2010,0.128982543945312,-0.978317260742188,-0.191207885742188,-0.0599560104310513,0.045774944126606,0.0130777191370726,0.773398778618401,0.626964637152511,0.0929217623368751,0.0116283737468271
2020-06-17 13:13:27.2110,0.12744140625,-0.973052978515625,-0.188232421875,-0.0523345768451691,0.0458806715905666,0.0118547948077321,0.773514890911838,0.626816457011576,0.0929463437245329,0.0116970058281688
2020-06-17 13:13:27.2210,0.126251220703125,-0.969894409179688,-0.188079833984375,-0.041756235063076,0.0437498763203621,0.00762063544243574,0.773595854969706,0.626710120822738,0.0929833756647258,0.011746041121623
2020-06-17 13:13:27.2310,0.126327514648438,-0.96966552734375,-0.190963745117188,-0.0305019821971655,0.0433045960962772,0.00488610146567225,0.773651340946666,0.626635496046381,0.0930215189959947,0.0117709281626207
2020-06-17 13:13:27.2410,0.125778198242188,-0.969284057617188,-0.19451904296875,-0.0282497480511665,0.0428428053855896,0.00344772823154926,0.773688658093775,0.626580863326587,0.0930759810970188,0.0117959227189292
2020-06-17 13:13:27.2510,0.12451171875,-0.970321655273438,-0.19927978515625,-0.0295509677380323,0.045801043510437,0.00642887083813548,0.773738491971683,0.626513018527374,0.0931125777486768,0.0118419391190883
2020-06-17 13:13:27.2610,0.124801635742188,-0.972198486328125,-0.20257568359375,-0.026868898421526,0.0453014336526394,0.0092347776517272,0.773791003853725,0.626442345864498,0.0931424323924885,0.0119145688482619
2020-06-17 13:13:27.2710,0.127700805664062,-0.974685668945312,-0.200027465820312,-0.0320436879992485,0.0513348281383514,0.0144865307956934,0.7738495596623,0.626363379245164,0.0931735761286493,0.0120191872621591
2020-06-17 13:13:27.2810,0.131683349609375,-0.97564697265625,-0.19818115234375,-0.0319467484951019,0.0548027940094471,0.0151352770626545,0.773904137416238,0.626288591078195,0.0932087725315808,0.0121289529009486
2020-06-17 13:13:27.2910,0.135238647460938,-0.978240966796875,-0.201248168945312,-0.0305507183074951,0.0491893850266933,0.0145483165979385,0.773947267344472,0.626230996380077,0.0932258624401406,0.0122190472268952
2020-06-17 13:13:27.3010,0.135177612304688,-0.984909057617188,-0.202484130859375,-0.0294239353388548,0.0414422489702702,0.0158015992492437,0.773989832114941,0.626177618573828,0.0932194390209663,0.0123071511126904
2020-06-17 13:13:27.3110,0.134201049804688,-0.988006591796875,-0.201446533203125,-0.0304985214024782,0.0385439284145832,0.0184549074620008,0.774043675338341,0.626114222848849,0.0931869967769612,0.0123916200226666
2020-06-17 13:13:27.3210,0.133651733398438,-0.980224609375,-0.204681396484375,-0.0337326638400555,0.0399953536689281,0.0219926498830318,0.774112286680997,0.626034767710935,0.0931411541957798,0.0124644543287049
2020-06-17 13:13:27.3310,0.132431030273438,-0.968231201171875,-0.2088623046875,-0.0336391851305962,0.0392805598676205,0.0189340095967054,0.774178698085475,0.625956609069574,0.0931044712278389,0.0125389166271962
2020-06-17 13:13:27.3410,0.1285400390625,-0.963821411132812,-0.211456298828125,-0.0300601646304131,0.0370970331132412,0.0173978991806507,0.774233359833949,0.625890650266577,0.0930850339851366,0.0126005903474095
2020-06-17 13:13:27.3510,0.123886108398438,-0.965118408203125,-0.209426879882812,-0.0255801938474178,0.0421354696154594,0.0103032374754548,0.774272668832075,0.625837362632251,0.0931091746384101,0.0126535145836462
2020-06-17 13:13:27.3610,0.120498657226562,-0.966506958007812,-0.207275390625,-0.0204168576747179,0.0490817911922932,0.00561580760404468,0.774301003145365,0.625791499309749,0.0931751262601003,0.0127024315055065
2020-06-17 13:13:27.3710,0.118942260742188,-0.9683837890625,-0.2060546875,-0.0199534688144922,0.0541386008262634,0.00340431882068515,0.774326740373641,0.625744417750553,0.0932690735708961,0.0127633346575132
2020-06-17 13:13:27.3810,0.116851806640625,-0.968215942382812,-0.207412719726562,-0.0209873076528311,0.0581242889165878,0.00266395998187363,0.774351098631392,0.625696650141776,0.0933770570036173,0.0128375727869153
2020-06-17 13:13:27.3910,0.116561889648438,-0.972076416015625,-0.208038330078125,-0.0199686475098133,0.0576438568532467,0.00486133433878422,0.77437168598067,0.62565269522044,0.0934872821845237,0.0129354159037885
2020-06-17 13:13:27.4010,0.118637084960938,-0.97552490234375,-0.207107543945312,-0.0207614712417126,0.0656453222036362,0.00688187452033162,0.7743850290325,0.625616072514783,0.0936064104860454,0.0130459394997003
2020-06-17 13:13:27.4100,0.124313354492188,-0.974899291992188,-0.207748413085938,-0.0176005642861128,0.0657694265246391,0.00780039886012673,0.774397080735072,0.625581014060396,0.0937261580271513,0.0131515587530037
2020-06-17 13:13:27.4210,0.1307373046875,-0.973861694335938,-0.207122802734375,-0.0152370100840926,0.0611560307443142,0.00838442984968424,0.774430072379614,0.625521207314778,0.0938382433178094,0.0132539158211853
2020-06-17 13:13:27.4310,0.135406494140625,-0.97271728515625,-0.20562744140625,-0.015187474898994,0.0683375149965286,0.00779267540201545,0.774454589855625,0.625470219008345,0.0939571783928054,0.0133843944081197
2020-06-17 13:13:27.4410,0.137130737304688,-0.97149658203125,-0.204345703125,-0.0131339114159346,0.0720094814896584,0.00603205990046263,0.774464720490384,0.625435342760333,0.0940855569489485,0.0135254099982846
2020-06-17 13:13:27.4510,0.134780883789062,-0.966049194335938,-0.206710815429688,-0.0172892417758703,0.0765174105763435,0.00453696120530367,0.774487572003553,0.625383725579925,0.0942204962226398,0.0136636262893066
2020-06-17 13:13:27.4610,0.128738403320312,-0.962814331054688,-0.204666137695312,-0.0231050532311201,0.0773011818528175,0.000249005563091487,0.774520573814562,0.625318088138383,0.094363825583423,0.0138071650305799
2020-06-17 13:13:27.4710,0.124954223632812,-0.963211059570312,-0.20361328125,-0.0231870785355568,0.0781667083501816,-0.0043385555036366,0.774554134361489,0.625251976086036,0.0945064762974047,0.0139422122304797
2020-06-17 13:13:27.4810,0.12713623046875,-0.966629028320312,-0.2047119140625,-0.0181901883333921,0.0731309354305267,-0.00595323042944074,0.774569639673145,0.625210770589804,0.0946361372636939,0.0140487422542123
2020-06-17 13:13:27.4910,0.1302490234375,-0.970428466796875,-0.206069946289062,-0.0148250190541148,0.0628410130739212,-0.00626988010481,0.774582842769445,0.625173173535941,0.0947672166787302,0.0141101885590776
2020-06-17 13:13:27.5010,0.133575439453125,-0.972579956054688,-0.207977294921875,-0.0161480773240328,0.0639004185795784,-0.00996927730739117,0.774604392143412,0.625120352228183,0.0949339410333756,0.0141466512687477
2020-06-17 13:13:27.5110,0.137069702148438,-0.970260620117188,-0.210861206054688,-0.0246262513101101,0.0652200132608414,-0.0128042120486498,0.774644450455659,0.625043030590995,0.0951106248974069,0.0141828882636556
2020-06-17 13:13:27.5210,0.134292602539062,-0.966873168945312,-0.211898803710938,-0.0273519959300756,0.0630551353096962,-0.0113474633544683,0.774687824104213,0.624960523792943,0.0952934739837626,0.0142222607638513
2020-06-17 13:13:27.5310,0.129608154296875,-0.963760375976562,-0.210617065429688,-0.0254864506423473,0.0685337856411934,-0.0119051290675998,0.774724929783278,0.624886458497144,0.0954730690269528,0.01425097364275
2020-06-17 13:13:27.5410,0.125167846679688,-0.964523315429688,-0.20794677734375,-0.0200892891734838,0.0626436769962311,-0.0133805200457573,0.774745823629287,0.624834885062345,0.0956368163296211,0.0142784642184814
2020-06-17 13:13:27.5500,0.123336791992188,-0.966445922851562,-0.208847045898438,-0.0209127385169268,0.0668749064207077,-0.012410064227879,0.774771523493047,0.624775275277871,0.0958108024516142,0.0143259177472515
2020-06-17 13:13:27.5600,0.122650146484375,-0.965652465820312,-0.212051391601562,-0.0265751518309116,0.0715199857950211,-0.0100196106359363,0.774813513415601,0.624693088683145,0.095996517905842,0.0143955871723829
2020-06-17 13:13:27.5699,0.12200927734375,-0.964584350585938,-0.21630859375,-0.0307089108973742,0.0680474936962128,-0.00795006845146418,0.774863891042396,0.624603398536303,0.0961638709546673,0.0144587281097844
2020-06-17 13:13:27.5800,0.123886108398438,-0.968902587890625,-0.219207763671875,-0.0298905204981565,0.0663324147462845,-0.00532072968780994,0.774915598020604,0.624512536263632,0.0963258239232655,0.014534223042139
2020-06-17 13:13:27.5910,0.126251220703125,-0.97210693359375,-0.216094970703125,-0.0276223067194223,0.0739024505019188,-0.000246342387981713,0.774963738024049,0.62442095217203,0.0965143414741834,0.0146513182400913
2020-06-17 13:13:27.6010,0.127166748046875,-0.969161987304688,-0.215255737304688,-0.0309957321733236,0.0813060402870178,0.00363335059955716,0.775033015856761,0.624299869990416,0.0967198758280166,0.0147906146503692
2020-06-17 13:13:27.6110,0.128768920898438,-0.967803955078125,-0.215438842773438,-0.0346083119511604,0.0811529085040092,0.00356171163730323,0.775114149695807,0.624168768441794,0.0968926971361843,0.0149401701756188
2020-06-17 13:13:27.6210,0.129287719726562,-0.973800659179688,-0.21343994140625,-0.0352338887751102,0.0781323537230492,0.00901506654918194,0.775179748936496,0.624061121635008,0.0970367677710265,0.0150976489215498
2020-06-17 13:13:27.6310,0.128036499023438,-0.979354858398438,-0.211257934570312,-0.0316167809069157,0.0662077814340591,0.00927712116390467,0.775245357234739,0.623963775952716,0.0971173501561633,0.015233603758013
2020-06-17 13:13:27.6410,0.130889892578125,-0.97564697265625,-0.211593627929688,-0.0284140650182962,0.0544667020440102,0.0134116793051362,0.775303155459369,0.62388674353869,0.0971310757654623,0.0153591175553445
2020-06-17 13:13:27.6510,0.139785766601562,-0.968109130859375,-0.211578369140625,-0.0238637868314981,0.0481241196393967,0.0152489943429828,0.775362583798621,0.623812319038003,0.0971151220961204,0.0154824843552848
2020-06-17 13:13:27.6610,0.146697998046875,-0.964569091796875,-0.208892822265625,-0.0208360403776169,0.0470937415957451,0.0167345050722361,0.775429725292222,0.623730387971398,0.0970872376241939,0.0155952731551301
2020-06-17 13:13:27.6710,0.146636962890625,-0.96575927734375,-0.206069946289062,-0.0162045359611511,0.0424100421369076,0.00924915820360184,0.775475707031698,0.623671480089489,0.0970869951162144,0.0156661452175481
2020-06-17 13:13:27.6810,0.143936157226562,-0.96978759765625,-0.20343017578125,-0.0136950397863984,0.0439048744738102,0.00450207386165857,0.775501741446432,0.623636003176364,0.0971026038551648,0.015692956391542
2020-06-17 13:13:27.6909,0.138534545898438,-0.975326538085938,-0.20184326171875,-0.00910321716219187,0.0399367623031139,0.000119043303129729,0.775523144024211,0.623604729438297,0.0971326925958929,0.0156918620330038
2020-06-17 13:13:27.7010,0.132003784179688,-0.977218627929688,-0.202255249023438,-0.00717642018571496,0.0380499139428139,-0.00332176079973578,0.775533928730041,0.623587831480403,0.0971577842111919,0.015675037010761
2020-06-17 13:13:27.7110,0.127532958984375,-0.9771728515625,-0.205154418945312,-0.00855753570795059,0.0373955741524696,-0.00462058465927839,0.775532251627319,0.623585446637789,0.0971904445587068,0.0156503966049447
2020-06-17 13:13:27.7210,0.124969482421875,-0.978073120117188,-0.207168579101562,-0.0114971324801445,0.0349057875573635,-0.00307914684526622,0.775545777932676,0.623565315200277,0.0972148329610636,0.0156307473375596
2020-06-17 13:13:27.7310,0.125244140625,-0.980010986328125,-0.208023071289062,-0.0170029513537884,0.0349534563720226,0.000276702427072451,0.775582413654209,0.623514964460136,0.0972481394568481,0.0156143554707893
2020-06-17 13:13:27.7410,0.1282958984375,-0.98223876953125,-0.208587646484375,-0.017845842987299,0.0349108465015888,5.53937497898005e-05,0.775626457959099,0.6234496568784,0.0973220478614627,0.0155737616547201
2020-06-17 13:13:27.7510,0.131759643554688,-0.981155395507812,-0.2100830078125,-0.0207902323454618,0.0377873256802559,0.00346743571572006,0.775665992531635,0.623388387021502,0.0974054153586449,0.0155361518869124
2020-06-17 13:13:27.7610,0.131729125976562,-0.97528076171875,-0.210006713867188,-0.0209902357310057,0.0393793620169163,0.00289911706931889,0.77570666342721,0.623326811066471,0.0974769359958675,0.0155275841387766
2020-06-17 13:13:27.7710,0.132125854492188,-0.966400146484375,-0.208847045898438,-0.0268529187887907,0.0417921878397465,0.00578358676284552,0.775756595789955,0.623258156492897,0.0975149587417919,0.0155501535375916
2020-06-17 13:13:27.7810,0.134231567382812,-0.956344604492188,-0.208297729492188,-0.0320205166935921,0.0428997948765755,0.00527785252779722,0.775825799156946,0.623166405035599,0.0975444945591345,0.0155895021952851
2020-06-17 13:13:27.7910,0.137725830078125,-0.950408935546875,-0.208572387695312,-0.0358229801058769,0.0464354082942009,0.00420752819627523,0.775901293558585,0.623070443798173,0.0975549184136722,0.0156026476139394
2020-06-17 13:13:27.8010,0.138885498046875,-0.954788208007812,-0.210311889648438,-0.0292380470782518,0.0290255267173052,0.00123490777332336,0.775953342331546,0.623008637644153,0.0975400841392571,0.0155749777330875
2020-06-17 13:13:27.8110,0.138107299804688,-0.96435546875,-0.209915161132812,-0.0203159246593714,0.0263519790023565,-0.00135821208823472,0.775989350128566,0.622967586245711,0.0975205261796019,0.0155454799826592
2020-06-17 13:13:27.8210,0.135009765625,-0.971389770507812,-0.208038330078125,-0.0160689819604158,0.0322556756436825,0.00123623933177441,0.776018305946163,0.622929168670257,0.0975362084554068,0.015541161358591
2020-06-17 13:13:27.8310,0.130538940429688,-0.969589233398438,-0.2086181640625,-0.0197276324033737,0.0393593907356262,0.00230816169641912,0.776045010624298,0.622890934940197,0.0975664016528841,0.0155506245202106
2020-06-17 13:13:27.8410,0.126617431640625,-0.9666748046875,-0.209686279296875,-0.0203582681715488,0.042676355689764,0.00157499348279089,0.776069667301024,0.622853337836924,0.0976083984848138,0.0155625057722203
2020-06-17 13:13:27.8510,0.126373291015625,-0.9696044921875,-0.209213256835938,-0.0140660181641579,0.0423570424318314,-0.00067164923530072,0.776074335689606,0.622839797003324,0.0976560427145261,0.0155727349599969
2020-06-17 13:13:27.8610,0.126495361328125,-0.972640991210938,-0.208023071289062,-0.00983265694230795,0.0430638454854488,0.00143038376700133,0.776062681851056,0.622847193994118,0.0976999490288254,0.015582256947078
2020-06-17 13:13:27.8710,0.129226684570312,-0.973861694335938,-0.206817626953125,-0.0044892905279994,0.0399559363722801,0.00241362280212343,0.776049951719846,0.622855013559918,0.0977521034227947,0.0155766105208318
2020-06-17 13:13:27.8810,0.135177612304688,-0.972259521484375,-0.20947265625,-0.00521713262423873,0.0399828366935253,0.00134729314595461,0.776049322255946,0.622846508731014,0.097815058713478,0.0155528221410905
2020-06-17 13:13:27.8910,0.138397216796875,-0.971389770507812,-0.2120361328125,-0.00602300511673093,0.0388390086591244,0.00165329035371542,0.776047100901417,0.622843847109212,0.0978527960531949,0.0155328556702866
2020-06-17 13:13:27.9010,0.139602661132812,-0.97235107421875,-0.212646484375,-0.00822384096682072,0.0362639985978603,0.00103623594623059,0.776041326404977,0.622850528303492,0.0978601964159965,0.0155068069275023
2020-06-17 13:13:27.9110,0.13970947265625,-0.973678588867188,-0.212677001953125,-0.00718068098649383,0.0306114386767149,0.000530235352925956,0.776039477978764,0.622852290576166,0.0978681180864572,0.0154785078314098
2020-06-17 13:13:27.9210,0.138900756835938,-0.974929809570312,-0.210708618164062,-0.00793355703353882,0.0333174765110016,0.000425573147367686,0.776032281439237,0.622859665966549,0.0978823042992113,0.0154528049663699
2020-06-17 13:13:27.9310,0.13714599609375,-0.97528076171875,-0.211318969726562,-0.00634657917544246,0.0373947769403458,-0.00290630757808685,0.776021119269299,0.622868745788224,0.0979164846035464,0.0154308136892397
2020-06-17 13:13:27.9410,0.132568359375,-0.973297119140625,-0.210433959960938,-0.00734047079458833,0.0428689047694206,-0.0021305289119482,0.776012680176428,0.622871642344951,0.0979657839828538,0.0154253861061987
2020-06-17 13:13:27.9510,0.129714965820312,-0.97406005859375,-0.211944580078125,-0.00891759525984526,0.0367718636989594,-0.000561926979571581,0.776016585898506,0.622863629423045,0.0979888361556641,0.015406022888361
2020-06-17 13:13:27.9610,0.129257202148438,-0.97601318359375,-0.213088989257812,-0.0112435994669795,0.0313832238316536,-0.000724113488104194,0.776028500084738,0.622848354738117,0.0979960547807459,0.0153774934128619
2020-06-17 13:13:27.9710,0.130111694335938,-0.974822998046875,-0.212432861328125,-0.0121799670159817,0.0321869663894176,-0.000722781929653138,0.776037421125578,0.622837736341068,0.0979990265842455,0.015338382927735
2020-06-17 13:13:27.9810,0.134933471679688,-0.97247314453125,-0.212188720703125,-0.0069580408744514,0.0263834036886692,-0.00295850564725697,0.776037034464067,0.622838282309728,0.0980093529655012,0.0152696418087289
2020-06-17 13:13:27.9910,0.1348876953125,-0.966293334960938,-0.207122802734375,-0.00663393409922719,0.031460452824831,-0.00424001878127456,0.776035462917129,0.622835186578766,0.0980510209317517,0.0152081540179036
2020-06-17 13:13:28.0010,0.133026123046875,-0.959213256835938,-0.203140258789062,-0.00747069949284196,0.0377095602452755,-0.00745498668402433,0.776022954310888,0.622843755045352,0.0981020968317535,0.0151660733487877
2020-06-17 13:13:28.0100,0.132339477539062,-0.955123901367188,-0.20281982421875,-0.00630796328186989,0.0427285544574261,-0.00621422007679939,0.776010496157577,0.622850534538496,0.0981632874737958,0.0151291265682459
2020-06-17 13:13:28.0210,0.133499145507812,-0.956222534179688,-0.20306396484375,-0.00595562718808651,0.0446620099246502,-0.00570209417492151,0.775997799885553,0.622860544815416,0.0982068439778075,0.0150854923997763
2020-06-17 13:13:28.0310,0.136688232421875,-0.962142944335938,-0.204177856445312,-0.00305837416090071,0.0373340547084808,-0.00502325454726815,0.775967332818245,0.622891706664002,0.0982556362357449,0.0150482595689662
2020-06-17 13:13:28.0410,0.138778686523438,-0.97021484375,-0.20428466796875,0.00795592740178108,0.0377527065575123,-0.00558811100199819,0.775926072095827,0.622938029621464,0.0982924759886935,0.015017691476432
2020-06-17 13:13:28.0500,0.140457153320312,-0.975906372070312,-0.207656860351562,0.00795592740178108,0.0377527065575123,-0.00558811100199819,0.775873418137,0.622995311039827,0.0983480026718205,0.0149983939560688
2020-06-17 13:13:28.0610,0.142013549804688,-0.976791381835938,-0.212722778320312,0.000600010214839131,0.0513902194797993,0.00104662228841335,0.775826786536529,0.623042752235172,0.0984166262130027,0.0149897920090568
2020-06-17 13:13:28.0709,0.14129638671875,-0.975357055664062,-0.212905883789062,0.000600010214839131,0.0513902194797993,0.00104662228841335,0.775797109286209,0.623067306969462,0.0984902362595486,0.0150216367457971
2020-06-17 13:13:28.0800,0.139801025390625,-0.973785400390625,-0.2109375,-0.00584723660722375,0.0503694303333759,0.00489915115758777,0.775781328565501,0.623076258182123,0.0985517391048033,0.0150619208047819
2020-06-17 13:13:28.0910,0.14013671875,-0.970306396484375,-0.210128784179688,-0.00289938342757523,0.0379050374031067,0.00520381657406688,0.775765452749124,0.623090107000266,0.0985844055699077,0.0150929075320786
2020-06-17 13:13:28.1010,0.14105224609375,-0.967941284179688,-0.209716796875,-0.00123757100664079,0.0366096757352352,0.00418169563636184,0.775743433083086,0.62311489497531,0.0985997037922382,0.0151013939905814
2020-06-17 13:13:28.1110,0.140106201171875,-0.967910766601562,-0.210845947265625,0.0029214876703918,0.0315379537642002,0.00161946821026504,0.775710767099365,0.623154271918154,0.0986101901215902,0.0150860730627079
2020-06-17 13:13:28.1210,0.138580322265625,-0.969589233398438,-0.214019775390625,0.00900334864854813,0.0310748293995857,0.000900681072380394,0.775663232040928,0.623212573524453,0.098620549128437,0.0150541007853192
2020-06-17 13:13:28.1310,0.137374877929688,-0.968368530273438,-0.219711303710938,0.00915088783949614,0.0357348285615444,1.62452834047144e-05,0.775607450788519,0.623280864825613,0.0986327413643691,0.0150209238904024
2020-06-17 13:13:28.1409,0.137374877929688,-0.968063354492188,-0.221221923828125,0.00863423477858305,0.033569410443306,0.00157126504927874,0.775548479084338,0.623350705038504,0.0986589565612397,0.0149955129361694
2020-06-17 13:13:28.1510,0.137893676757812,-0.968521118164062,-0.221099853515625,0.00775512494146824,0.0393479391932487,0.00247247866354883,0.775505218834032,0.623398446825951,0.0987025876606062,0.0149609907851298
2020-06-17 13:13:28.1610,0.137435913085938,-0.970657348632812,-0.2196044921875,0.0118286963552237,0.0349268242716789,0.00240962812677026,0.7754493433971,0.623463379846634,0.0987338845865681,0.0149448937655846
2020-06-17 13:13:28.1710,0.141525268554688,-0.972747802734375,-0.215744018554688,0.0194203034043312,0.0298875905573368,0.00142479117494076,0.775380149773845,0.623549290109084,0.0987391961119674,0.0149156727072504
2020-06-17 13:13:28.1810,0.146636962890625,-0.969284057617188,-0.213958740234375,0.0205034110695124,0.0279946159571409,0.0034751589410007,0.775298078880694,0.623651657482409,0.0987449523997098,0.0148638278693351
2020-06-17 13:13:28.1910,0.14794921875,-0.961898803710938,-0.212051391601562,0.0226030461490154,0.0212099477648735,0.00436625257134438,0.775213844397271,0.623760759155986,0.0987267949957897,0.0147996872200373
2020-06-17 13:13:28.2010,0.145889282226562,-0.957077026367188,-0.209304809570312,0.0184144265949726,0.020871726796031,0.00530608231201768,0.775147028394361,0.623852164352448,0.0986850187896921,0.0147250966256619
2020-06-17 13:13:28.2110,0.144561767578125,-0.95953369140625,-0.2109375,0.0150346094742417,0.0160713773220778,0.00805526319891214,0.775111452645951,0.623905837326202,0.0986353547680312,0.0146563609794579
2020-06-17 13:13:28.2210,0.143447875976562,-0.967544555664062,-0.2093505859375,0.0135991657152772,0.0204240493476391,0.0102829979732633,0.775098693585809,0.62393303039336,0.0985698732295375,0.0146139959369234
2020-06-17 13:13:28.2310,0.141647338867188,-0.968276977539062,-0.204879760742188,0.0140122221782804,0.0212152730673552,0.0130580114200711,0.775084362956395,0.623962165481901,0.0985040181879382,0.0145741122696063
2020-06-17 13:13:28.2410,0.141555786132812,-0.964340209960938,-0.204254150390625,0.0122598623856902,0.0188216250389814,0.0101136201992631,0.77507179719065,0.623989858869388,0.0984335858967088,0.0145325288691238
2020-06-17 13:13:28.2510,0.140625,-0.963272094726562,-0.204345703125,0.00754766492173076,0.0175366494804621,0.00272254948504269,0.775048870035953,0.624028505106155,0.0983783585615816,0.0144697075885486
2020-06-17 13:13:28.2610,0.140274047851562,-0.964431762695312,-0.206710815429688,0.00471219699829817,0.0207838416099548,-0.000182426534593105,0.775029250429798,0.624056474033853,0.0983699262954681,0.0143713532864954
2020-06-17 13:13:28.2710,0.137222290039062,-0.96673583984375,-0.20654296875,3.91484682040755e-05,0.0288271214812994,-0.00350019265897572,0.775022521586215,0.624062214474311,0.0984021800887779,0.0142637461187318
2020-06-17 13:13:28.2810,0.134185791015625,-0.9654541015625,-0.206283569335938,-6.73779723001644e-05,0.0383910648524761,-0.00411857850849628,0.775013276009409,0.624067400053985,0.098456144788407,0.0141665010650965
2020-06-17 13:13:28.2910,0.132858276367188,-0.96282958984375,-0.2076416015625,0.00284665287472308,0.0343329384922981,-0.00254544941708446,0.774997527042987,0.624079063036072,0.0985184347645443,0.0140809860740471
2020-06-17 13:13:28.3010,0.133880615234375,-0.963272094726562,-0.2091064453125,0.00402616709470749,0.0345670320093632,0.0024913870729506,0.774975297149113,0.624100284422899,0.0985684213203547,0.0140139255854449
2020-06-17 13:13:28.3110,0.13592529296875,-0.963653564453125,-0.209152221679688,0.00136407115496695,0.0368895754218102,0.0073790866881609,0.77493139808395,0.62415284711509,0.0985834945366821,0.0139945098777061
2020-06-17 13:13:28.3210,0.139007568359375,-0.9654541015625,-0.210250854492188,0.000529436394572258,0.0371439047157764,0.0114875454455614,0.774893100027081,0.624200272300393,0.098584193009225,0.0139950162291825
2020-06-17 13:13:28.3310,0.1407470703125,-0.967361450195312,-0.211380004882812,-2.663161012606e-06,0.0364653319120407,0.0202639922499657,0.774862845233172,0.624239223568808,0.0985707072872868,0.0140277760264929
2020-06-17 13:13:28.3410,0.13922119140625,-0.968246459960938,-0.209335327148438,-0.00247993553057313,0.0346937999129295,0.0231085140258074,0.774837332325946,0.624273947741599,0.0985436245203267,0.0140819271241133
2020-06-17 13:13:28.3510,0.13763427734375,-0.966888427734375,-0.209381103515625,-0.002803775947541,0.0326761864125729,0.0251932367682457,0.774813664918055,0.624311050234434,0.0984865117142738,0.014138748946905
2020-06-17 13:13:28.3610,0.13836669921875,-0.963623046875,-0.210723876953125,-0.0056301886215806,0.0313323549926281,0.0230770893394947,0.774793322578493,0.6243466394382,0.098411825415221,0.0142018917207962
2020-06-17 13:13:28.3710,0.137786865234375,-0.965606689453125,-0.20819091796875,-0.00760572170838714,0.0349353477358818,0.0217998381704092,0.774780625806676,0.62437073150367,0.0983493311054972,0.0142681669211356
2020-06-17 13:13:28.3810,0.134780883789062,-0.970352172851562,-0.20587158203125,-0.00764806615188718,0.0417583659291267,0.0186889991164207,0.774780411920419,0.624375777743437,0.0983091261748371,0.0143358704808669
2020-06-17 13:13:28.3910,0.130813598632812,-0.97265625,-0.201736450195312,-0.00545415375381708,0.0437852963805199,0.0133914388716221,0.774779959386643,0.62437551352068,0.098305175431265,0.0143987892563045
2020-06-17 13:13:28.4010,0.12469482421875,-0.971206665039062,-0.200180053710938,-0.00476226443424821,0.0447224639356136,0.00773648312315345,0.774778785217879,0.62437175216605,0.0983321616049714,0.0144407433152845
2020-06-17 13:13:28.4110,0.121429443359375,-0.971588134765625,-0.201736450195312,-0.000290550873614848,0.0543958656489849,0.000749413506127894,0.77477312723596,0.62436693483424,0.0984043943417604,0.0144605384733114
2020-06-17 13:13:28.4210,0.120956420898438,-0.975540161132812,-0.199310302734375,-0.00165542087052017,0.0620633698999882,-0.00147619016934186,0.774752792500465,0.624370990267375,0.0985326257334482,0.0145016789145712
2020-06-17 13:13:28.4310,0.122940063476562,-0.980133056640625,-0.19769287109375,-0.00703713670372963,0.0699647068977356,-0.00450207386165857,0.774730987102788,0.624373870979955,0.0986782455388988,0.0145523440589656
2020-06-17 13:13:28.4410,0.129364013671875,-0.984512329101562,-0.20220947265625,-0.00517825037240982,0.0654940530657768,-0.0017044231062755,0.774723608592438,0.624357057370804,0.0988348241058108,0.01460386061131
2020-06-17 13:13:28.4510,0.13385009765625,-0.985504150390625,-0.205963134765625,-0.0096273273229599,0.0675907582044601,-0.000692155561409891,0.774718179916473,0.624338671169034,0.0989855178086643,0.0146571707346027
2020-06-17 13:13:28.4610,0.133499145507812,-0.9879150390625,-0.203170776367188,-0.0119583923369646,0.0701159685850143,0.00263360003009439,0.774706006395204,0.624328105915776,0.0991350306517834,0.0147399293242532
2020-06-17 13:13:28.4710,0.128326416015625,-0.989654541015625,-0.198776245117188,-0.0123730460181832,0.0701370090246201,0.00631595263257623,0.774698717148876,0.624312206653825,0.099276554123655,0.0148435869065004
2020-06-17 13:13:28.4800,0.124435424804688,-0.9879150390625,-0.197906494140625,-0.0125432219356298,0.0669582635164261,0.0072627067565918,0.774689857251003,0.624300558339567,0.099400912363902,0.014963173144387
2020-06-17 13:13:28.4910,0.129547119140625,-0.981781005859375,-0.200088500976562,-0.009017463773489,0.0552656538784504,0.00692608300596476,0.774680612758872,0.624300940669689,0.0994515593287902,0.0150887720359292
2020-06-17 13:13:28.5010,0.138290405273438,-0.9716796875,-0.203887939453125,-0.00645949738100171,0.0490639507770538,0.0057324543595314,0.77466621345717,0.624313169401821,0.0994713673686497,0.0151911590471079
2020-06-17 13:13:28.5110,0.143661499023438,-0.963211059570312,-0.203140258789062,-0.00141946482472122,0.0446694679558277,-0.0026602316647768,0.774638485524207,0.624343877639632,0.0994837552840415,0.0152617703185596
2020-06-17 13:13:28.5210,0.14093017578125,-0.959487915039062,-0.2005615234375,0.000376570969820023,0.052143894135952,-0.00837936997413635,0.774606393182409,0.624374073300612,0.0995416631620049,0.0152777460995612
2020-06-17 13:13:28.5310,0.135757446289062,-0.958358764648438,-0.201431274414062,0.00457930564880371,0.0530062280595303,-0.0111807491630316,0.774563206047768,0.624410067350571,0.0996531553449748,0.0152694550671614
2020-06-17 13:13:28.5410,0.13006591796875,-0.960906982421875,-0.202362060546875,0.00544163724407554,0.0549721717834473,-0.00879322551190853,0.774510723129979,0.624454797486823,0.0997818615166248,0.0152619056688642
2020-06-17 13:13:28.5500,0.1273193359375,-0.967758178710938,-0.201004028320312,0.00840786565095186,0.0501827411353588,-0.0109810121357441,0.774451606035084,0.624510148545502,0.0998950007957589,0.0152569030071587
2020-06-17 13:13:28.5610,0.129470825195312,-0.974533081054688,-0.199020385742188,0.0131932999938726,0.0497499778866768,-0.00969364028424025,0.774375894303069,0.624593943122687,0.0999561845323594,0.0152689786989345
2020-06-17 13:13:28.5709,0.134567260742188,-0.980758666992188,-0.193832397460938,0.0208064783364534,0.0435618571937084,-0.0110135022550821,0.774288015696667,0.624692578411952,0.10002062447446,0.0152684611301827
2020-06-17 13:13:28.5810,0.139907836914062,-0.986114501953125,-0.1923828125,0.0248233247548342,0.0439778454601765,-0.00845074281096458,0.774193038765746,0.624796447433469,0.100112528955127,0.0152321878726065
2020-06-17 13:13:28.5910,0.141830444335938,-0.988418579101562,-0.196304321289062,0.0257136188447475,0.0513787679374218,-0.00311776273883879,0.774086671737287,0.624913761200943,0.100206729927428,0.0152061493360762
2020-06-17 13:13:28.6010,0.139724731445312,-0.986724853515625,-0.195571899414062,0.0218674819916487,0.0575202852487564,0.00347915361635387,0.773977842899092,0.625031283948136,0.100314148445595,0.0152073800849346
2020-06-17 13:13:28.6110,0.13922119140625,-0.979507446289062,-0.196868896484375,0.0187768843024969,0.058432150632143,0.00849415268748999,0.773874271794981,0.625143448135343,0.100406667906548,0.0152571867376059
2020-06-17 13:13:28.6210,0.141220092773438,-0.96697998046875,-0.19879150390625,0.0146223520860076,0.0542579106986523,0.0114790229126811,0.773783763298146,0.625240542337745,0.100488363712925,0.0153310349181289
2020-06-17 13:13:28.6310,0.143112182617188,-0.961471557617188,-0.195709228515625,0.0198823623359203,0.0408675372600555,0.010919226333499,0.773699428665005,0.625337574934775,0.100523750506712,0.015397631058207
2020-06-17 13:13:28.6410,0.146286010742188,-0.964981079101562,-0.1934814453125,0.0215665437281132,0.032300416380167,0.00769147556275129,0.773600509633344,0.625459223258642,0.100525207095657,0.0154173368031266
2020-06-17 13:13:28.6510,0.151214599609375,-0.968917846679688,-0.196914672851562,0.0213004946708679,0.0342940576374531,0.00643792562186718,0.773501571509039,0.625583707014814,0.100514470638592,0.0154008305910692
2020-06-17 13:13:28.6610,0.150665283203125,-0.96826171875,-0.194793701171875,0.0184889957308769,0.0394395515322685,0.00302774785086513,0.773405027595917,0.625702092572803,0.100521470437309,0.0153944347247881
2020-06-17 13:13:28.6710,0.144683837890625,-0.964523315429688,-0.195175170898438,0.0126811740919948,0.0404733903706074,5.85895440963213e-06,0.773315749125922,0.625807528764687,0.100553114940629,0.0153870130625026
2020-06-17 13:13:28.6810,0.139755249023438,-0.961380004882812,-0.196151733398438,0.0086001455783844,0.0396603271365166,-0.000189617072464898,0.773245888961329,0.625887929370121,0.10059135055421,0.0153777523346683
2020-06-17 13:13:28.6909,0.1370849609375,-0.962356567382812,-0.197067260742188,0.00278034014627337,0.0392906814813614,-0.00341337360441685,0.773198481678275,0.625941032228987,0.100627897802401,0.0153609337733474
2020-06-17 13:13:28.7010,0.135879516601562,-0.9669189453125,-0.197967529296875,0.00302748149260879,0.0342237502336502,-0.00270630419254303,0.773165096268062,0.625976356973597,0.100668285860452,0.0153372306750837
2020-06-17 13:13:28.7110,0.136138916015625,-0.970840454101562,-0.19525146484375,0.010782340541482,0.0305413976311684,-0.00190842116717249,0.773119393747732,0.626029922356954,0.100693866603835,0.0152867443641601
2020-06-17 13:13:28.7210,0.137344360351562,-0.972198486328125,-0.194595336914062,0.0169427637010813,0.0327318459749222,-0.0010562096722424,0.773048064966362,0.626114726397758,0.100723070995373,0.0152283160226218
2020-06-17 13:13:28.7310,0.13775634765625,-0.968276977539062,-0.192352294921875,0.0172958988696337,0.0280872937291861,0.00130042154341936,0.772965953000535,0.626210121200376,0.100770652170954,0.0151589996116342
2020-06-17 13:13:28.7410,0.140121459960938,-0.967559814453125,-0.1942138671875,0.0135759962722659,0.0413969755172729,-0.000683367135934532,0.772884010399368,0.626302235275905,0.100837696777511,0.0150856045951408
2020-06-17 13:13:28.7510,0.141586303710938,-0.973251342773438,-0.195205688476562,0.0132446987554431,0.0404909662902355,-0.000414654175983742,0.772804755276093,0.626390074942552,0.10090519433864,0.0150474579781198
2020-06-17 13:13:28.7610,0.139450073242188,-0.979522705078125,-0.193756103515625,0.013218067586422,0.0456985123455524,0.000638359691947699,0.772726145629189,0.626478484553654,0.100959862963749,0.0150372312197213
2020-06-17 13:13:28.7710,0.139144897460938,-0.9832763671875,-0.192367553710938,0.012154933065176,0.045450571924448,0.00375026348046958,0.772651046872062,0.626561348550329,0.101020145217038,0.0150388340847517
2020-06-17 13:13:28.7810,0.13812255859375,-0.984039306640625,-0.194351196289062,0.0110068451613188,0.0468849502503872,0.0065686865709722,0.772577905277564,0.626642966753701,0.10107050331929,0.0150574185648362
2020-06-17 13:13:28.7910,0.13671875,-0.978988647460938,-0.196533203125,0.00500620994716883,0.0419117622077465,0.00826059281826019,0.772511850007154,0.626720505026463,0.10109226762717,0.0150732744914959
2020-06-17 13:13:28.8010,0.138275146484375,-0.97564697265625,-0.197799682617188,0.00565362442284822,0.0363257825374603,0.00896393414586782,0.772459172321375,0.626782401038571,0.101107981775838,0.0150938684941163
2020-06-17 13:13:28.8110,0.139694213867188,-0.977737426757812,-0.198898315429688,0.00366371078416705,0.0350978001952171,0.00832770485430956,0.772410700727885,0.626842590411448,0.101103585023863,0.0151043484680703
2020-06-17 13:13:28.8210,0.1414794921875,-0.980453491210938,-0.200180053710938,0.00597133953124285,0.0369862467050552,0.0109735550358891,0.772365736678865,0.626899545604675,0.101092343561251,0.0151151115927328
2020-06-17 13:13:28.8310,0.141250610351562,-0.981201171875,-0.200729370117188,0.00207273825071752,0.036731380969286,0.0111269531771541,0.772319803464052,0.626956261631047,0.101088696863391,0.0151341516224784
2020-06-17 13:13:28.8410,0.137847900390625,-0.97998046875,-0.198944091796875,-0.00389860151335597,0.0478455536067486,0.00928484462201595,0.772283861479353,0.626996774798484,0.101106681831993,0.0151697257642476
2020-06-17 13:13:28.8510,0.13458251953125,-0.975967407226562,-0.195419311523438,-0.0101836612448096,0.0527119487524033,0.0132433669641614,0.772264795211764,0.627013503779155,0.101139942984113,0.015227084037644
2020-06-17 13:13:28.8610,0.132278442382812,-0.971511840820312,-0.195037841796875,-0.0141467116773129,0.0512280352413654,0.0150532517582178,0.772262652817775,0.62700764764252,0.101180199620464,0.0153092150487926
2020-06-17 13:13:28.8710,0.13385009765625,-0.970138549804688,-0.19805908203125,-0.0101280016824603,0.0434364229440689,0.0146095687523484,0.77226388704138,0.627002240888306,0.101192747078183,0.0153852732036503
2020-06-17 13:13:28.8810,0.139801025390625,-0.971511840820312,-0.198699951171875,0.00172945682425052,0.0397119931876659,0.0153352804481983,0.772247242138414,0.627022165668565,0.101187648139761,0.0154421706330433
2020-06-17 13:13:28.8910,0.145065307617188,-0.973526000976562,-0.194183349609375,0.00961214769631624,0.0318293012678623,0.0111687649041414,0.772202148183156,0.627080776778073,0.101165250672019,0.0154639514094794
2020-06-17 13:13:28.9010,0.14935302734375,-0.972412109375,-0.194290161132812,0.0105557050555944,0.0323906950652599,0.011001517996192,0.772133810378007,0.627169320725739,0.101138429041439,0.0154609243767996
2020-06-17 13:13:28.9110,0.149368286132812,-0.970077514648438,-0.197265625,0.00869175884872675,0.0420411936938763,0.0094313183799386,0.772065777878388,0.627254906815043,0.10112683910847,0.0154621769949014
2020-06-17 13:13:28.9210,0.14453125,-0.966552734375,-0.198745727539062,-0.000111053814180195,0.0434233732521534,0.0087825721129775,0.772010763579526,0.62731976038306,0.101140302757846,0.0154899421673531
2020-06-17 13:13:28.9310,0.139450073242188,-0.966033935546875,-0.2017822265625,-0.00636335695162416,0.0416009724140167,0.00734313391149044,0.771976415685967,0.627358316460264,0.101158233733758,0.0155231485419772
2020-06-17 13:13:28.9410,0.135208129882812,-0.969345092773438,-0.201583862304688,-0.00837644096463919,0.0430388152599335,0.00740918051451445,0.771959821816325,0.627374231158984,0.101180100161104,0.0155626125817509
2020-06-17 13:13:28.9510,0.134994506835938,-0.972610473632812,-0.196151733398438,-0.00447730626910925,0.0358088649809361,0.00434095272794366,0.771947022947091,0.62738739508565,0.101193584077099,0.0155791139798826
2020-06-17 13:13:28.9610,0.137298583984375,-0.974853515625,-0.195205688476562,0.00291349831968546,0.0314234346151352,0.000902811589185148,0.771920970402279,0.627418319875498,0.101202559982945,0.0155662837797016
2020-06-17 13:13:28.9710,0.1400146484375,-0.973312377929688,-0.195327758789062,0.00635803071781993,0.0339204147458076,-0.00344905979000032,0.771878824852625,0.627468165480651,0.101219712728987,0.0155354693375723
2020-06-17 13:13:28.9810,0.14178466796875,-0.971694946289062,-0.1925048828125,0.00515774404630065,0.0363548099994659,-0.00460487185046077,0.771834297465851,0.627515815940591,0.101274104995603,0.0154684730064198
2020-06-17 13:13:28.9910,0.143295288085938,-0.969955444335938,-0.19708251953125,0.00207247189246118,0.0361966192722321,-0.00440859701484442,0.771793544959572,0.62755666484287,0.101343938958841,0.01538708569991
2020-06-17 13:13:29.0010,0.13958740234375,-0.968994140625,-0.197784423828125,0.00235210382379591,0.0424403995275497,-0.00139309954829514,0.771761703775186,0.627585799609535,0.101414312680088,0.015332119817837
2020-06-17 13:13:29.0110,0.136520385742188,-0.968765258789062,-0.196441650390625,0.00287674670107663,0.0469358153641224,0.00578758167102933,0.77173475595453,0.627608932860428,0.101476918235753,0.0153273908729131
2020-06-17 13:13:29.0210,0.136199951171875,-0.966934204101562,-0.197769165039062,0.00571807334199548,0.0458340682089329,0.00994051527231932,0.771713381294126,0.627626604198111,0.101523270715295,0.0153729742601566
2020-06-17 13:13:29.0310,0.138092041015625,-0.966552734375,-0.197723388671875,0.00993731897324324,0.0425661019980907,0.0140082268044353,0.771660390491694,0.62768638806083,0.10154905838659,0.0154216967338903
2020-06-17 13:13:29.0400,0.142318725585938,-0.971405029296875,-0.195816040039062,0.00721956323832273,0.0389149077236652,0.0149105060845613,0.771604174895044,0.627754554970105,0.101547178067235,0.0154721241400678
2020-06-17 13:13:29.0509,0.148880004882812,-0.975662231445312,-0.19403076171875,0.00788641907274723,0.0306585766375065,0.0155858835205436,0.77154917230406,0.627825397332838,0.101521493889406,0.0155090766729814
2020-06-17 13:13:29.0600,0.152984619140625,-0.976486206054688,-0.194808959960938,0.00872558075934649,0.0239495411515236,0.0158695112913847,0.771492221595581,0.627903594142217,0.101468645077516,0.0155223241473211
2020-06-17 13:13:29.0700,0.149505615234375,-0.974411010742188,-0.194961547851562,0.00892052426934242,0.0224834717810154,0.0128715904429555,0.771438891918668,0.627980654374746,0.10139821456421,0.0155156646507754
2020-06-17 13:13:29.0800,0.144683837890625,-0.97210693359375,-0.195480346679688,0.00848190207034349,0.0247900355607271,0.00924383196979761,0.771397293405549,0.628040139056511,0.101349004346331,0.0154977023612691
2020-06-17 13:13:29.0910,0.137939453125,-0.972412109375,-0.19610595703125,0.00633566034957767,0.0342333391308784,0.00792503450065851,0.77134634789449,0.62810811544275,0.101316999330501,0.015487819454406
2020-06-17 13:13:29.1010,0.133010864257812,-0.970169067382812,-0.19482421875,0.00446612108498812,0.0326311811804771,0.00739000551402569,0.771299558035786,0.628166688781873,0.101310117816393,0.0154875080838294
2020-06-17 13:13:29.1110,0.128875732421875,-0.967971801757812,-0.193878173828125,0.00512152491137385,0.0372168757021427,0.00426691677421331,0.771262798227753,0.628212095864583,0.101309363761597,0.0154813272539927
2020-06-17 13:13:29.1210,0.129501342773438,-0.969894409179688,-0.194808959960938,0.0032216259278357,0.0395921505987644,0.00576893938705325,0.771213375392758,0.628270020355067,0.101326986832723,0.0154774958489556
2020-06-17 13:13:29.1310,0.134307861328125,-0.974853515625,-0.191940307617188,0.00427144393324852,0.0363417640328407,0.00751810381188989,0.771169461875563,0.628318276622408,0.101362119739611,0.0154765957075517
2020-06-17 13:13:29.1409,0.140457153320312,-0.97796630859375,-0.189102172851562,0.00289831822738051,0.0312162432819605,0.00798202678561211,0.771132346550192,0.628357579549672,0.101405836396398,0.0154438554518956
2020-06-17 13:13:29.1510,0.145217895507812,-0.979598999023438,-0.189468383789062,0.00744593190029263,0.0245143976062536,0.00888590328395367,0.771093643744917,0.628404250985772,0.101418146212159,0.0153964131565692
2020-06-17 13:13:29.1610,0.146499633789062,-0.97906494140625,-0.188949584960938,0.00773861352354288,0.0348615758121014,0.0106017775833607,0.77104781683054,0.628461506794902,0.10141492355801,0.0153756924287286
2020-06-17 13:13:29.1710,0.1446533203125,-0.976333618164062,-0.1878662109375,0.00659851403906941,0.0411301255226135,0.00810985825955868,0.77099072587252,0.628532063223178,0.101408651481026,0.0153958281290657
2020-06-17 13:13:29.1810,0.140945434570312,-0.968795776367188,-0.188400268554688,0.000993625377304852,0.0492929816246033,0.00691702822223306,0.770941500347759,0.628588223755044,0.101429689318797,0.0154293915212766
2020-06-17 13:13:29.1910,0.135894775390625,-0.964614868164062,-0.190185546875,0.00289911706931889,0.0406571477651596,0.00710691185668111,0.770899655772919,0.628634585373482,0.101455617395744,0.0154608052944445
2020-06-17 13:13:29.2010,0.133514404296875,-0.96722412109375,-0.19244384765625,0.00718946941196918,0.036094356328249,0.00610503042116761,0.770862800080393,0.628679005720093,0.101454221655415,0.0155013588857316
2020-06-17 13:13:29.2110,0.134796142578125,-0.973297119140625,-0.192291259765625,0.00863849557936192,0.0337877906858921,0.00632527377456427,0.770810295421003,0.628742346391666,0.101459691742038,0.0155074588021194
2020-06-17 13:13:29.2210,0.1358642578125,-0.978042602539062,-0.1932373046875,0.0073215626180172,0.0397426187992096,0.00800013542175293,0.770748289583558,0.62881775727373,0.10146344230995,0.0155071633728147
2020-06-17 13:13:29.2310,0.138870239257812,-0.978607177734375,-0.191802978515625,0.00256036315113306,0.0404957607388496,0.00759267201647162,0.770695591874303,0.628879288339914,0.101479765729862,0.0155242555381471
2020-06-17 13:13:29.2410,0.140090942382812,-0.974609375,-0.189605712890625,-0.000632767041679472,0.0431778319180012,0.00555828353390098,0.77065595275238,0.628924096842942,0.101502144946716,0.0155305334366802
2020-06-17 13:13:29.2510,0.139663696289062,-0.970855712890625,-0.189682006835938,-0.00127432262524962,0.0458465851843357,0.00400779116898775,0.770622711411435,0.628957601751024,0.10154360514935,0.0155521094955581
2020-06-17 13:13:29.2610,0.138824462890625,-0.972122192382812,-0.191146850585938,0.0067388629540801,0.0411863178014755,0.00434175133705139,0.770581847402578,0.628999745860653,0.101589516772388,0.0155726119458594
2020-06-17 13:13:29.2710,0.134872436523438,-0.9730224609375,-0.192001342773438,0.0108909970149398,0.0384230241179466,0.00390685722231865,0.770523648104825,0.629066152425252,0.101618799298357,0.0155789349212858
2020-06-17 13:13:29.2810,0.13330078125,-0.968246459960938,-0.193832397460938,0.0168745871633291,0.0324831083416939,0.00389114464633167,0.770452746623428,0.629151302456767,0.101630114326836,0.0155731724219453
2020-06-17 13:13:29.2910,0.13525390625,-0.966033935546875,-0.196487426757812,0.0160410180687904,0.0336844585835934,0.00585096469148993,0.770373078240981,0.62924720710411,0.101640417207428,0.0155723557335296
2020-06-17 13:13:29.3010,0.13946533203125,-0.967376708984375,-0.197525024414062,0.0179651528596878,0.0327869765460491,0.00582060497254133,0.770287949080987,0.629351961315025,0.101639552466203,0.0155558884030448
2020-06-17 13:13:29.3110,0.1435546875,-0.970077514648438,-0.199203491210938,0.0211958326399326,0.02318175137043,0.00410925736650825,0.77020148653222,0.62946164758579,0.101620693315877,0.0155222115738198
2020-06-17 13:13:29.3210,0.148849487304688,-0.973602294921875,-0.202606201171875,0.0169169325381517,0.0259421188384295,0.00432550627738237,0.770117207053056,0.629573106936705,0.101576715629579,0.0154713045595245
2020-06-17 13:13:29.3310,0.148956298828125,-0.975448608398438,-0.199844360351562,0.012514459900558,0.0303744170814753,0.00516280392184854,0.770044706872065,0.629666575709014,0.10155307257504,0.0154313416062609
2020-06-17 13:13:29.3410,0.141616821289062,-0.974365234375,-0.1920166015625,0.0116188395768404,0.0358738452196121,0.00642114784568548,0.769974985153557,0.629753327999036,0.101546817650196,0.0154114222911498
2020-06-17 13:13:29.3510,0.134674072265625,-0.971969604492188,-0.186813354492188,0.0117061911150813,0.0368184670805931,0.00439634639769793,0.76990611581147,0.629838290833728,0.101544036272874,0.0153983418963587
2020-06-17 13:13:29.3610,0.130157470703125,-0.970611572265625,-0.185791015625,0.00979031249880791,0.0380251482129097,0.00464402046054602,0.769839322381436,0.62991811757596,0.1015553776904,0.0153976662845419
2020-06-17 13:13:29.3710,0.130630493164062,-0.970428466796875,-0.185897827148438,0.0137408459559083,0.0374581590294838,0.00531300622969866,0.769792784764845,0.629974546809499,0.101556701855626,0.0154069855701836
2020-06-17 13:13:29.3810,0.134613037109375,-0.975875854492188,-0.18353271484375,0.015255119651556,0.0382603034377098,0.00326849753037095,0.769744667725006,0.630031428210337,0.101569355900281,0.015401685562454
2020-06-17 13:13:29.3910,0.140609741210938,-0.982574462890625,-0.183837890625,0.012138688005507,0.0348831489682198,0.00471326243132353,0.76970267788385,0.630081156329436,0.101584927690035,0.0153631560299774
2020-06-17 13:13:29.4010,0.14337158203125,-0.987380981445312,-0.188751220703125,0.0083071980625391,0.0372349880635738,0.00522006209939718,0.769675206498037,0.630108657967963,0.10162872960765,0.0153217810437414
2020-06-17 13:13:29.4110,0.143890380859375,-0.986114501953125,-0.192916870117188,0.0049026133492589,0.0407016240060329,0.00618545804172754,0.769656226488008,0.630122700790207,0.101691432095462,0.0152816103689775
2020-06-17 13:13:29.4210,0.14251708984375,-0.978530883789062,-0.19378662109375,0.000300670886645094,0.0470458045601845,0.00542459264397621,0.769629020250967,0.630146785744151,0.101747153211605,0.0152877865365568
2020-06-17 13:13:29.4310,0.1392822265625,-0.970062255859375,-0.194366455078125,-0.00383095722645521,0.0508408099412918,0.00462617725133896,0.769594247137971,0.630179307774089,0.101802255580688,0.0153308703012452
2020-06-17 13:13:29.4410,0.135086059570312,-0.965560913085938,-0.1923828125,-0.00827737059444189,0.0505593121051788,0.00720145367085934,0.76957275124012,0.630194731904467,0.101862007799574,0.015378940002779
2020-06-17 13:13:29.4510,0.13287353515625,-0.965225219726562,-0.1915283203125,-0.00689332606270909,0.0514253750443459,0.0087010795250535,0.769553031377559,0.630204919293017,0.101934168993348,0.0154698671011449
2020-06-17 13:13:29.4610,0.132644653320312,-0.968704223632812,-0.191513061523438,-0.00698866741731763,0.0398597978055477,0.00825047306716442,0.769546661059361,0.630209240519209,0.10195209919133,0.0154925494051896
2020-06-17 13:13:29.4710,0.133163452148438,-0.973388671875,-0.192642211914062,-0.00668613240122795,0.0345238894224167,0.0085873631760478,0.769531846714412,0.630225976835619,0.101954845009834,0.0155294749723637
2020-06-17 13:13:29.4810,0.137420654296875,-0.977798461914062,-0.193374633789062,-0.0129445604979992,0.0416571646928787,0.00750026060268283,0.769532441849718,0.630223111889477,0.101964618395125,0.0155520666372628
2020-06-17 13:13:29.4910,0.140335083007812,-0.98223876953125,-0.193740844726562,-0.0148577755317092,0.0453589595854282,0.00490554282441735,0.769542290444142,0.630204186878329,0.102002950273687,0.0155802501415027
2020-06-17 13:13:29.5010,0.139083862304688,-0.982086181640625,-0.191390991210938,-0.0203143265098333,0.0519209876656532,0.0058669438585639,0.769579522021168,0.630147526907819,0.102065436294011,0.0156237105625596
2020-06-17 13:13:29.5110,0.136581420898438,-0.97808837890625,-0.18914794921875,-0.0268015209585428,0.0600793175399303,0.00375772034749389,0.769621090577653,0.630080201175968,0.10215527787236,0.0157040194516308
2020-06-17 13:13:29.5210,0.13232421875,-0.970352172851562,-0.1868896484375,-0.0311547238379717,0.0654565021395683,0.00507278926670551,0.769670567056249,0.63000040818605,0.102257778234259,0.0158129909667595
2020-06-17 13:13:29.5310,0.13067626953125,-0.96868896484375,-0.184768676757812,-0.0276888851076365,0.0651358589529991,0.00731596956029534,0.769711781315169,0.629929546646746,0.102366157505147,0.0159282693248733
2020-06-17 13:13:29.5410,0.13134765625,-0.969375610351562,-0.183624267578125,-0.0220584310591221,0.0631259754300117,0.00967632979154587,0.769743875791261,0.629872466329525,0.102457641591815,0.0160459814674034
2020-06-17 13:13:29.5500,0.132568359375,-0.973251342773438,-0.184280395507812,-0.0185305401682854,0.0539820082485676,0.0131411021575332,0.769753054944707,0.629854843712972,0.102489222510643,0.0160956367927318
2020-06-17 13:13:29.5610,0.135787963867188,-0.977706909179688,-0.184860229492188,-0.016857011243701,0.0475427508354187,0.0138005008921027,0.769780427693897,0.629810220871765,0.102537488070359,0.0162247454550446
2020-06-17 13:13:29.5709,0.136520385742188,-0.979721069335938,-0.183334350585938,-0.0199396200478077,0.0427109785377979,0.0183502454310656,0.76980492294307,0.629777178446732,0.102542819068276,0.0163112347115947
2020-06-17 13:13:29.5810,0.1383056640625,-0.977584838867188,-0.185211181640625,-0.0313688404858112,0.0456250086426735,0.0196168441325426,0.769859130966999,0.629709176264683,0.102537836073281,0.0164092647062843
2020-06-17 13:13:29.5910,0.139434814453125,-0.97821044921875,-0.18646240234375,-0.0484319813549519,0.0503252223134041,0.0231223627924919,0.769959328528416,0.629582939773503,0.102539187185815,0.0165429577009693
2020-06-17 13:13:29.6010,0.139205932617188,-0.98193359375,-0.187225341796875,-0.0654160231351852,0.0484942980110645,0.0206935610622168,0.770033591942503,0.629491092377183,0.102534614684309,0.0166097769234856
2020-06-17 13:13:29.6110,0.137527465820312,-0.984664916992188,-0.18756103515625,-0.0749602615833282,0.0545548535883427,0.0221471134573221,0.770311166662401,0.629144457196604,0.102538610319603,0.0168461238190496
2020-06-17 13:13:29.6210,0.13519287109375,-0.986343383789062,-0.18438720703125,-0.0748446807265282,0.0640112087130547,0.0264459885656834,0.770497146673562,0.628906378674066,0.102568998686306,0.0170444812024416
2020-06-17 13:13:29.6310,0.132675170898438,-0.986190795898438,-0.180007934570312,-0.0620551146566868,0.0601448304951191,0.0314375497400761,0.770646264417133,0.628715541612478,0.102584025101321,0.0172516859714674
2020-06-17 13:13:29.6410,0.131027221679688,-0.983123779296875,-0.177108764648438,-0.0522027499973774,0.0504091121256351,0.0350152403116226,0.770770537820329,0.628561679663007,0.10256093298588,0.0174427037022716
2020-06-17 13:13:29.6510,0.130661010742188,-0.97998046875,-0.175628662109375,-0.0545790903270245,0.0435698479413986,0.0310932043939829,0.770899328968033,0.628408885985572,0.102503292182188,0.0175946498351651
2020-06-17 13:13:29.6610,0.131698608398438,-0.979385375976562,-0.1748046875,-0.043745081871748,0.037608627229929,0.0272044558078051,0.771009407604319,0.628280346769563,0.102443599856661,0.0177089835158077
2020-06-17 13:13:29.6710,0.134307861328125,-0.980560302734375,-0.174484252929688,-0.0354541316628456,0.0375313945114613,0.0233660433441401,0.771086633157519,0.628190125469197,0.102398953047431,0.0178051914785348
2020-06-17 13:13:29.6810,0.134872436523438,-0.982452392578125,-0.173507690429688,-0.0280739795416594,0.034285269677639,0.0187585074454546,0.771140607584178,0.628128531966869,0.10235888244602,0.0178709218635199
2020-06-17 13:13:29.6909,0.134613037109375,-0.981231689453125,-0.171279907226562,-0.026011360809207,0.0344189591705799,0.0139078265056014,0.771186524345706,0.628075991249684,0.102326659978379,0.01792061776241
2020-06-17 13:13:29.7010,0.13543701171875,-0.977249145507812,-0.173858642578125,-0.0265503842383623,0.0340240113437176,0.0144364638254046,0.771214907468378,0.628045567916611,0.102289906777143,0.0179751520262354
2020-06-17 13:13:29.7110,0.140228271484375,-0.974899291992188,-0.179046630859375,-0.0255980379879475,0.0355180464684963,0.0137981036677957,0.77123111454804,0.628030726566676,0.102248637304197,0.0180330421880395
2020-06-17 13:13:29.7210,0.14166259765625,-0.970809936523438,-0.179916381835938,-0.0236320924013853,0.0276995375752449,0.0115573201328516,0.771236354375585,0.628034048632112,0.102183680908197,0.0180614175597212
2020-06-17 13:13:29.7310,0.141769409179688,-0.966232299804688,-0.182159423828125,-0.0220123585313559,0.0259692817926407,0.0108329402282834,0.771233494836829,0.628047677857052,0.102118577559675,0.0180778012303754
2020-06-17 13:13:29.7410,0.141387939453125,-0.964874267578125,-0.182022094726562,-0.0125735821202397,0.0216600224375725,0.00928617641329765,0.771204964562473,0.628093336783941,0.102056867719882,0.0180570948110561
2020-06-17 13:13:29.7510,0.138931274414062,-0.965087890625,-0.183578491210938,-0.00632687192410231,0.0174061544239521,0.00958871189504862,0.771156654940752,0.628164159312859,0.101991983102913,0.0180232593637777
2020-06-17 13:13:29.7610,0.135330200195312,-0.965682983398438,-0.185302734375,-0.00397290382534266,0.0177204068750143,0.0106808738783002,0.771090125802016,0.628258163801433,0.101922510206204,0.0179860896458474
2020-06-17 13:13:29.7710,0.130142211914062,-0.969131469726562,-0.183685302734375,-0.00426105782389641,0.0202093981206417,0.0109740877524018,0.771026478958484,0.628346901843776,0.101862172282875,0.0179565460493999
2020-06-17 13:13:29.7810,0.127716064453125,-0.97283935546875,-0.183837890625,-0.00635643303394318,0.0235878843814135,0.00664005940780044,0.770989203210588,0.628400474478261,0.101820790477987,0.0179169984829048
2020-06-17 13:13:29.7910,0.127761840820312,-0.976165771484375,-0.184097290039062,-0.000100933801149949,0.0249737929552794,0.00243972195312381,0.770946429464578,0.628456794897899,0.101808038869374,0.0178544970259433
2020-06-17 13:13:29.8010,0.127578735351562,-0.978515625,-0.177337646484375,0.0105306711047888,0.0175345186144114,-0.00367249920964241,0.770887046470831,0.628532356373696,0.101807763575282,0.017760007055384
2020-06-17 13:13:29.8100,0.130859375,-0.978271484375,-0.174179077148438,0.0109245525673032,0.016652213409543,-0.0085213165730238,0.770822869636215,0.628614534249003,0.101808033862254,0.0176350565012331
2020-06-17 13:13:29.8210,0.136322021484375,-0.978927612304688,-0.177810668945312,0.00819587800651789,0.0133237950503826,-0.00658945925533772,0.770769810771529,0.628687545620535,0.101779019035197,0.017518563556485
2020-06-17 13:13:29.8310,0.136001586914062,-0.983505249023438,-0.179702758789062,0.00275290966965258,0.014320082962513,-0.00404161307960749,0.770732085796247,0.628742663964389,0.101742273373271,0.0174133352339394
2020-06-17 13:13:29.8410,0.135757446289062,-0.987548828125,-0.184051513671875,0.00252627464942634,0.0162625927478075,0.000972586451098323,0.770700959040339,0.628791758442548,0.101688334030947,0.0173331754459531
2020-06-17 13:13:29.8510,0.138442993164062,-0.982711791992188,-0.18975830078125,0.00280830333940685,0.0109991217032075,0.00879429094493389,0.770671907664406,0.628842223515945,0.101605630392963,0.0172790200207054
2020-06-17 13:13:29.8600,0.140060424804688,-0.971893310546875,-0.192581176757812,0.0042629218660295,0.0109415976330638,0.013905162923038,0.770640996187474,0.628899182192479,0.101494392362996,0.0172383859938973
2020-06-17 13:13:29.8710,0.139114379882812,-0.965087890625,-0.195449829101562,0.00599078088998795,0.0142108937725425,0.0152199659496546,0.770586680734444,0.628988289259963,0.101358511185753,0.0172148673739977
2020-06-17 13:13:29.8810,0.13690185546875,-0.965301513671875,-0.196334838867188,0.00574257411062717,0.0135925076901913,0.0140175484120846,0.770509050089777,0.629104226568708,0.101233883862126,0.0171865238290631
2020-06-17 13:13:29.8900,0.135086059570312,-0.97021484375,-0.194381713867188,0.00404747202992439,0.0148386005312204,0.0104893920943141,0.77044146531393,0.629203837651121,0.101138439870875,0.0171317013315035
2020-06-17 13:13:29.9010,0.13311767578125,-0.972824096679688,-0.192550659179688,0.00611621560528874,0.0128068756312132,0.00932425912469625,0.77038419451611,0.629290133329746,0.101048381600702,0.0170688461670311
2020-06-17 13:13:29.9110,0.129974365234375,-0.971420288085938,-0.191665649414062,0.0107112340629101,0.0129357725381851,0.00827124528586864,0.770328410230845,0.629377726653205,0.1009397190043,0.0169997268035656
2020-06-17 13:13:29.9210,0.131683349609375,-0.970504760742188,-0.190704345703125,0.0103514408692718,0.00961161497980356,0.0110593093559146,0.770273128715125,0.629465310327932,0.100826859386127,0.0169314706833919
2020-06-17 13:13:29.9310,0.13409423828125,-0.972625732421875,-0.189376831054688,0.0107266800478101,0.00940575264394283,0.0109069757163525,0.770223098001415,0.629546757487186,0.100712531523908,0.0168595799627179
2020-06-17 13:13:29.9410,0.134735107421875,-0.976730346679688,-0.191452026367188,0.0108707575127482,0.0111250886693597,0.0112169682979584,0.770185624169279,0.629610097085584,0.100615954948511,0.0167827167245987
2020-06-17 13:13:29.9510,0.135208129882812,-0.98040771484375,-0.19195556640625,0.00939536560326815,0.0115072522312403,0.0137933101505041,0.770158968619075,0.629659868404874,0.100518472246568,0.0167227364140803
2020-06-17 13:13:29.9610,0.133987426757812,-0.981216430664062,-0.192367553710938,0.0134521592408419,0.0127152623608708,0.0158889517188072,0.770111864096669,0.629736032313499,0.100409158137452,0.0166807477570128
2020-06-17 13:13:29.9710,0.131622314453125,-0.980209350585938,-0.19122314453125,0.00705151772126555,0.0163121279329062,0.0172165371477604,0.770061346600005,0.629816194138546,0.100299110653892,0.0166484976938774
2020-06-17 13:13:29.9810,0.129531860351562,-0.975784301757812,-0.19073486328125,0.00275264331139624,0.0248582120984793,0.0164194535464048,0.770029911090145,0.629867490393519,0.100219121388107,0.0166435657258438
2020-06-17 13:13:29.9900,0.129776000976562,-0.972824096679688,-0.193252563476562,-0.00438409578055143,0.0215636156499386,0.0127421608194709,0.770016668463069,0.62989478897619,0.100150043447377,0.0166389274643937
2020-06-17 13:13:30.0000,0.13043212890625,-0.972900390625,-0.19647216796875,-0.013626329600811,0.0207138005644083,0.0102558331564069,0.770027188478487,0.629893484724272,0.10007952576781,0.0166257459357581
2020-06-17 13:13:30.0100,0.13214111328125,-0.971786499023438,-0.198928833007812,-0.0210661366581917,0.0250507574528456,0.00510341534391046,0.770063116773729,0.629856928849898,0.100036813372723,0.0166036542585158
2020-06-17 13:13:30.0210,0.134933471679688,-0.973648071289062,-0.198257446289062,-0.0304274149239063,0.025742381811142,-0.00189803494140506,0.770125171302782,0.629787184494035,0.100006402362919,0.0165542217987332
2020-06-17 13:13:30.0310,0.133682250976562,-0.974899291992188,-0.196426391601562,-0.0354757010936737,0.0257916487753391,-0.00712715182453394,0.770207487425653,0.629687507674265,0.100010715364898,0.0164901729717091
2020-06-17 13:13:30.0410,0.130538940429688,-0.9732666015625,-0.19482421875,-0.0391173101961613,0.0308170337229967,-0.0124769099056721,0.770301793044378,0.629568063540144,0.100047253760103,0.0164240073670064
2020-06-17 13:13:30.0509,0.129287719726562,-0.9716796875,-0.19549560546875,-0.0395282357931137,0.0344573110342026,-0.0173302534967661,0.770399669904552,0.629439832315094,0.100111682575463,0.0163553391286992
2020-06-17 13:13:30.0600,0.130523681640625,-0.975311279296875,-0.199661254882812,-0.0374765358865261,0.0402110703289509,-0.0183561034500599,0.770488661624715,0.629317660566601,0.100203823653345,0.0163002494454937
2020-06-17 13:13:30.0709,0.129776000976562,-0.981170654296875,-0.2027587890625,-0.040598027408123,0.0510200411081314,-0.0153536563739181,0.770577716875338,0.629187723575979,0.100337250835904,0.0162857867836478
2020-06-17 13:13:30.0800,0.127273559570312,-0.984970092773438,-0.199951171875,-0.040071252733469,0.0610127523541451,-0.00870347674936056,0.770678173076943,0.629041490452006,0.100475173980819,0.016330837278864
2020-06-17 13:13:30.0910,0.121383666992188,-0.98193359375,-0.197845458984375,-0.0389380790293217,0.0705751031637192,0.00389940035529435,0.770769686180759,0.628904518665886,0.10061358274915,0.0164348481229328
2020-06-17 13:13:30.1000,0.116165161132812,-0.9683837890625,-0.196136474609375,-0.0358496084809303,0.0746609196066856,0.0148812113329768,0.770832969309432,0.628802123295907,0.100740789702162,0.0166047118116205
2020-06-17 13:13:30.1100,0.113510131835938,-0.956695556640625,-0.1905517578125,-0.0278183147311211,0.0737503841519356,0.0241625942289829,0.770872847572662,0.628731492944653,0.100843230987307,0.016804922458742
2020-06-17 13:13:30.1210,0.116256713867188,-0.955917358398438,-0.186813354492188,-0.0185473188757896,0.0600825101137161,0.0257471743971109,0.770892715840496,0.628694890379628,0.100889971725823,0.016981433383968
2020-06-17 13:13:30.1310,0.126541137695312,-0.963241577148438,-0.18438720703125,-0.00530927767977118,0.0496429204940796,0.0259674191474915,0.770881100997579,0.628706578754455,0.100882490625837,0.0171198434793561
2020-06-17 13:13:30.1400,0.1365966796875,-0.973617553710938,-0.179672241210938,0.00545761594548821,0.0314625836908817,0.0222802720963955,0.770861927851431,0.628739458566491,0.100809615983916,0.017204730624605
2020-06-17 13:13:30.1510,0.147216796875,-0.982208251953125,-0.180999755859375,0.00156993349082768,0.028399683535099,0.0229748245328665,0.770842298477492,0.628778212229577,0.100708389852222,0.0172606754412158
2020-06-17 13:13:30.1610,0.15283203125,-0.986358642578125,-0.185867309570312,-0.0050008837133646,0.0232928059995174,0.0186509154736996,0.770838043135526,0.628799192885777,0.100601523497861,0.0173095277548807
2020-06-17 13:13:30.1710,0.152633666992188,-0.9842529296875,-0.190597534179688,-0.0153163718059659,0.0249048173427582,0.0153720322996378,0.770870161203204,0.628780614036058,0.100464062339584,0.017352410703185
2020-06-17 13:13:30.1810,0.14666748046875,-0.979644775390625,-0.194442749023438,-0.0178967081010342,0.0224640294909477,0.00823103170841932,0.770916974502903,0.628742493469726,0.100338527393604,0.0173803121158603
2020-06-17 13:13:30.1910,0.142196655273438,-0.978500366210938,-0.197052001953125,-0.0191667694598436,0.0217550955712795,0.00460220873355865,0.770958748363126,0.628709169777214,0.100225485663906,0.0173850563370744
2020-06-17 13:13:30.2010,0.13720703125,-0.980712890625,-0.198318481445312,-0.0184306725859642,0.0182365272194147,-0.00189377379138023,0.770991375486591,0.628678850257312,0.100175031377064,0.0173252778633962
2020-06-17 13:13:30.2110,0.129257202148438,-0.981002807617188,-0.196243286132812,-0.0191398728638887,0.0155715029686689,-0.006850715726614,0.771025099061416,0.62864409173986,0.1001487328043,0.0172375710467936
2020-06-17 13:13:30.2210,0.124008178710938,-0.976654052734375,-0.195968627929688,-0.0181803349405527,0.0233330186456442,-0.00938977301120758,0.771041524058324,0.628621735684938,0.100181890097228,0.0171251423007277
2020-06-17 13:13:30.2310,0.122512817382812,-0.967514038085938,-0.195053100585938,-0.0149198276922107,0.0240376926958561,-0.00818469282239676,0.771044445717691,0.628610633196316,0.100250549440879,0.0169988792932706
2020-06-17 13:13:30.2410,0.120223999023438,-0.963241577148438,-0.192214965820312,-0.0112414695322514,0.0333350524306297,-0.00571034988388419,0.771046316873361,0.628595707136067,0.100345635885905,0.0169046610372948
2020-06-17 13:13:30.2510,0.11822509765625,-0.962127685546875,-0.190078735351562,-0.010903780348599,0.038788940757513,0.000288154027657583,0.771047581398137,0.628582675956759,0.100425330497295,0.0168582235609836
2020-06-17 13:13:30.2610,0.118011474609375,-0.966567993164062,-0.187026977539062,-0.00699372729286551,0.0420784763991833,0.0091492896899581,0.77104219475687,0.628582927082711,0.100463278155772,0.016869126439634
2020-06-17 13:13:30.2710,0.122817993164062,-0.973663330078125,-0.1861572265625,-0.00359686533920467,0.0368099473416805,0.0166894979774952,0.771023799099366,0.628606271563245,0.100450058537505,0.0169186971586884
2020-06-17 13:13:30.2810,0.132247924804688,-0.979293823242188,-0.1915283203125,-0.00519209867343307,0.0272097829729319,0.0220009069889784,0.771008327926583,0.628634511522136,0.100384159030939,0.0169655476431348
2020-06-17 13:13:30.2910,0.147354125976562,-0.981124877929688,-0.198150634765625,-0.005272526293993,0.0184549074620008,0.0249351765960455,0.771006607636856,0.628656144448545,0.100254613951804,0.0170080983290841
2020-06-17 13:13:30.3010,0.147354125976562,-0.981124877929688,-0.198150634765625,-0.0070829433389008,0.0127629330381751,0.0192772913724184,0.771023818839149,0.628660059019991,0.100095051736894,0.0170229725214264
2020-06-17 13:13:30.3110,0.14996337890625,-0.977401733398438,-0.199066162109375,-0.010349310003221,0.015015434473753,0.0109908655285835,0.771042289619503,0.628658860996873,0.0999628687588562,0.0170073213037496
2020-06-17 13:13:30.3210,0.147018432617188,-0.973495483398438,-0.19598388671875,-0.00774287432432175,0.00908643938601017,0.000487358483951539,0.77105794848797,0.628658447383307,0.09985228589279,0.0169622406868274
2020-06-17 13:13:30.3310,0.133987426757812,-0.971328735351562,-0.195404052734375,-0.00626774970442057,0.0154918739572167,-0.00514442846179008,0.771063187703299,0.628666746290168,0.0997696802972846,0.0169024723380587
2020-06-17 13:13:30.3410,0.126602172851562,-0.968704223632812,-0.193191528320312,-0.00343601033091545,0.0176423769444227,-0.00939403474330902,0.771049812273242,0.628694015556883,0.0997149693734558,0.0168210189706581
2020-06-17 13:13:30.3510,0.12567138671875,-0.965225219726562,-0.192855834960938,-0.00205116672441363,0.0207127351313829,-0.0127458889037371,0.771036509529174,0.62871541143824,0.09970283246614,0.0167026222893781
2020-06-17 13:13:30.3610,0.128189086914062,-0.965484619140625,-0.194503784179688,-0.00602886406704783,0.0228733569383621,-0.013954964466393,0.771032526379515,0.628723119726924,0.0997050483810472,0.0165826811161334
2020-06-17 13:13:30.3710,0.129623413085938,-0.97100830078125,-0.195114135742188,-0.0106547744944692,0.0229529868811369,-0.0112944664433599,0.771044941144089,0.628704522901566,0.0997470363181897,0.0164575321649611
2020-06-17 13:13:30.3800,0.1317138671875,-0.974090576171875,-0.19830322265625,-0.0123999444767833,0.0266579762101173,-0.00699346093460917,0.771076302431181,0.628659016858241,0.0998116398090444,0.0163344087899381
2020-06-17 13:13:30.3910,0.133468627929688,-0.97467041015625,-0.19976806640625,-0.0125860990956426,0.0289355106651783,-0.00340485153719783,0.771103746840893,0.628619509181353,0.0998629893822613,0.01624523426021
2020-06-17 13:13:30.4000,0.132919311523438,-0.975418090820312,-0.198944091796875,-0.0148234209045768,0.0345143005251884,0.0065066353417933,0.771131674549754,0.628584011561726,0.0998756136426894,0.0162155084581783
2020-06-17 13:13:30.4110,0.13372802734375,-0.975265502929688,-0.19671630859375,-0.0136510971933603,0.0366304479539394,0.0140790669247508,0.771145755656993,0.628570060364989,0.0998508611469784,0.0162390970551309
2020-06-17 13:13:30.4200,0.135757446289062,-0.975616455078125,-0.19757080078125,-0.0166554097086191,0.0332722030580044,0.0186549108475447,0.771165300522704,0.628553171887066,0.0998003554729838,0.0162750861104467
2020-06-17 13:13:30.4300,0.135757446289062,-0.975616455078125,-0.19757080078125,-0.0314253009855747,0.0268593113869429,0.0186115019023418,0.771225090744973,0.628491423020807,0.0997213484220709,0.0163108327062979
2020-06-17 13:13:30.4410,0.134918212890625,-0.978012084960938,-0.199539184570312,-0.0416814014315605,0.023901604115963,0.0158271659165621,0.771317916037841,0.628389350450913,0.0996412765253207,0.0163435813494401
2020-06-17 13:13:30.4500,0.131790161132812,-0.9786376953125,-0.199203491210938,-0.0406038835644722,0.0232909414917231,0.0123887592926621,0.771421217018014,0.628274757688352,0.0995630687882088,0.0163502330124943
2020-06-17 13:13:30.4600,0.130477905273438,-0.977813720703125,-0.202285766601562,-0.0361212529242039,0.0211055520921946,0.00869575329124928,0.77151226076437,0.628173623961721,0.0994980440946471,0.0163361216446612
2020-06-17 13:13:30.4710,0.128890991210938,-0.975509643554688,-0.201416015625,-0.0340826027095318,0.0277823619544506,0.00392709719017148,0.771590881577339,0.628083771500387,0.0994581748061815,0.0163205057757658
2020-06-17 13:13:30.4810,0.12921142578125,-0.971771240234375,-0.196823120117188,-0.0298258066177368,0.0254118833690882,0.00151027867104858,0.771662686712121,0.627999450572385,0.0994386591119831,0.0162892937546449
2020-06-17 13:13:30.4900,0.131546020507812,-0.971527099609375,-0.195053100585938,-0.0259546358138323,0.0252789910882711,-0.00462537817656994,0.771720533283856,0.627931143999773,0.0994307449473446,0.0162303377177697
2020-06-17 13:13:30.5000,0.134536743164062,-0.971817016601562,-0.19354248046875,-0.0176679436117411,0.029500100761652,-0.00742036569863558,0.771753911023687,0.627888709612209,0.0994488522598363,0.0161738970368701
2020-06-17 13:13:30.5100,0.133468627929688,-0.973388671875,-0.195816040039062,-0.0151523211970925,0.0290585495531559,-0.00516040716320276,0.771773073512576,0.627864925884004,0.0994597867083183,0.0161154793152929
2020-06-17 13:13:30.5200,0.130569458007812,-0.972396850585938,-0.198196411132812,-0.0141152860596776,0.0299523063004017,0.000183758107596077,0.77179310784219,0.627838631196027,0.0994752243088803,0.0160851364274875
2020-06-17 13:13:30.5300,0.129318237304688,-0.968658447265625,-0.199661254882812,-0.0215633492916822,0.034947331994772,0.00731570366770029,0.771823082918292,0.627802128223822,0.0994721697125832,0.0160904917517909
2020-06-17 13:13:30.5400,0.129409790039062,-0.966812133789062,-0.200424194335938,-0.0214618816971779,0.0339350625872612,0.0158468727022409,0.771862120365323,0.627758103133505,0.0994407639863742,0.0161296482657552
2020-06-17 13:13:30.5500,0.131118774414062,-0.968490600585938,-0.198013305664062,-0.022756977006793,0.0310668386518955,0.0210948996245861,0.771921082009756,0.627695848497301,0.0993654637601457,0.016194738030361
2020-06-17 13:13:30.5600,0.13275146484375,-0.973648071289062,-0.196075439453125,-0.0188511852174997,0.0273666437715292,0.0188637021929026,0.771957632572504,0.627661521303839,0.0992913270279133,0.01623762804848
2020-06-17 13:13:30.5699,0.133926391601562,-0.976104736328125,-0.193557739257812,-0.0146561739966273,0.0248502213507891,0.0144588341936469,0.771979291753349,0.627645021479628,0.0992249340187819,0.016251540997792
2020-06-17 13:13:30.5810,0.133087158203125,-0.974349975585938,-0.192337036132812,-0.0103290705010295,0.0266795475035906,0.011885154992342,0.771994181676914,0.627634279693952,0.0991751116392498,0.0162631989900147
2020-06-17 13:13:30.5900,0.131561279296875,-0.971710205078125,-0.19097900390625,-0.0140135539695621,0.03260587900877,0.0113831497728825,0.772008782298768,0.627619986273899,0.0991490917300859,0.0162803713785474
2020-06-17 13:13:30.6000,0.128829956054688,-0.96771240234375,-0.19305419921875,-0.0166724529117346,0.0365785174071789,0.00975515879690647,0.772028688223269,0.627596616696761,0.0991380712565202,0.0163044196025218
2020-06-17 13:13:30.6100,0.130661010742188,-0.966140747070312,-0.192855834960938,-0.020884508267045,0.039514385163784,0.00802064221352339,0.772059094240511,0.627557602986907,0.0991433794872858,0.0163340208671811
2020-06-17 13:13:30.6210,0.130020141601562,-0.9708251953125,-0.188812255859375,-0.0188085753470659,0.0417607612907887,0.00629597902297974,0.772096609828211,0.627508739900505,0.0991545001685047,0.0163704470494082
2020-06-17 13:13:30.6300,0.131454467773438,-0.978073120117188,-0.188125610351562,-0.0154034569859505,0.0406880415976048,0.00275663798674941,0.772117568072125,0.627478009247883,0.0991836348557411,0.0163833928569107
2020-06-17 13:13:30.6400,0.133316040039062,-0.983627319335938,-0.1905517578125,-0.017377657815814,0.0432750359177589,-0.00125914253294468,0.772133976400907,0.627451497895782,0.0992223850670814,0.0163908077062667
2020-06-17 13:13:30.6500,0.132705688476562,-0.984390258789062,-0.193328857421875,-0.0209761224687099,0.0508594512939453,-0.000827976793516427,0.772156906867206,0.627410287569597,0.0992997673327751,0.0164194529982639
2020-06-17 13:13:30.6600,0.128738403320312,-0.983688354492188,-0.19757080078125,-0.0249548852443695,0.0554941520094872,0.00102931179571897,0.772191704149866,0.627351913541561,0.0993899288436252,0.0164678675706964
2020-06-17 13:13:30.6700,0.124481201171875,-0.978866577148438,-0.200592041015625,-0.0231852140277624,0.0637768507003784,0.00594950187951326,0.772217578400223,0.627301186814243,0.0994949979551601,0.0165522812034938
2020-06-17 13:13:30.6800,0.123687744140625,-0.973358154296875,-0.202621459960938,-0.0220464468002319,0.0649331957101822,0.0112513229250908,0.772242063003101,0.627252217189659,0.0995939601356035,0.0166701908771362
2020-06-17 13:13:30.6899,0.126266479492188,-0.967483520507812,-0.20611572265625,-0.0174615476280451,0.0579085722565651,0.0163781736046076,0.772253473685195,0.627224215897263,0.0996622589087109,0.016786587575427
2020-06-17 13:13:30.7010,0.12860107421875,-0.963165283203125,-0.202346801757812,-0.0124550713226199,0.0632178485393524,0.0175148118287325,0.77224790187573,0.627216968426235,0.0997288976769836,0.0169174328688211
2020-06-17 13:13:30.7100,0.132461547851562,-0.96136474609375,-0.194778442382812,-0.0039699743501842,0.0564281232655048,0.0160753726959229,0.772221622637588,0.627237574377166,0.0997830455822824,0.017033338919423
