Timestamp,AccelX,AccelY,AccelZ,GyroX,GyroY,GyroZ,QuatW,QuatX,QuatY,QuatZ
2020-04-21 18:26:31.5040,-0.0201416015625,-0.972793579101562,-0.0700531005859375,-0.0211036875844002,0.0107011133804917,-0.0155174406245351,0.733763790967836,0.678982166578213,-0.0239565395897437,2.7279112320723e-05
2020-04-21 18:26:31.5140,-0.0152587890625,-0.97125244140625,-0.0663909912109375,-0.0504735596477985,0.044562142342329,0.00652234768494964,0.733941431741518,0.678795012658065,-0.0238172589001502,0.000209146433998534
2020-04-21 18:26:31.5240,-0.01513671875,-0.977035522460938,-0.06744384765625,-0.067932978272438,0.0597948916256428,0.0230150371789932,0.734184815024614,0.67853648490642,-0.0236778322867798,0.000506257160846053
2020-04-21 18:26:31.5340,-0.0175933837890625,-0.98583984375,-0.07269287109375,-0.0791675224900246,0.0663949996232986,0.0339377261698246,0.734460795276146,0.678241459298346,-0.0235606999651651,0.0008697748747643
2020-04-21 18:26:31.5440,-0.0256500244140625,-0.998138427734375,-0.078277587890625,-0.0676426962018013,0.0450849197804928,0.0511207096278667,0.734710611119095,0.677968438769903,-0.0236115512291063,0.00126830180210765
2020-04-21 18:26:31.5540,-0.041015625,-1.0089111328125,-0.0879974365234375,-0.0390579216182232,0.0118753015995026,0.0680070146918297,0.734860205306007,0.677797508852078,-0.023841125551695,0.00161752402109213
2020-04-21 18:26:31.5639,-0.0540313720703125,-1.01571655273438,-0.096160888671875,0.00441871676594019,-0.0183036401867867,0.0576949864625931,0.734859394000283,0.677788692013191,-0.0241029030487566,0.00179167329786423
2020-04-21 18:26:31.5740,-0.0548858642578125,-1.01420593261719,-0.095062255859375,0.0267112385481596,-0.0365510880947113,0.0336527675390244,0.734775512932802,0.677870975638686,-0.0243432056572929,0.00181502598353588
2020-04-21 18:26:31.5840,-0.04803466796875,-1.00971984863281,-0.0882415771484375,0.0330809876322746,-0.0428092479705811,-0.00262827356345952,0.734657231264361,0.677995257982911,-0.0244620457476842,0.00167063506096868
2020-04-21 18:26:31.5940,-0.0414276123046875,-0.99908447265625,-0.0794525146484375,0.0349654406309128,-0.0395908169448376,-0.0265535805374384,0.734514685448179,0.678150848126992,-0.0244457665499525,0.0014172308876459
2020-04-21 18:26:31.6030,-0.0351409912109375,-0.9852294921875,-0.0713348388671875,0.0263479836285114,-0.0217660162597895,-0.0283962208777666,0.734402655080006,0.678275510852724,-0.0243640063220495,0.00121110893502973
2020-04-21 18:26:31.6140,-0.030364990234375,-0.97784423828125,-0.065643310546875,0.00426771538332105,0.0057660099118948,-0.0100664822384715,0.734373652284838,0.678311002010285,-0.024252528294894,0.00115682882781271
2020-04-21 18:26:31.6240,-0.0265350341796875,-0.975067138671875,-0.0621337890625,-0.0107644973322749,0.0251455660909414,0.0152489943429828,0.734424144539582,0.678258467681141,-0.0241860453553366,0.00128924249199751
2020-04-21 18:26:31.6340,-0.0230712890625,-0.978179931640625,-0.061798095703125,-0.0357257723808289,0.0314165130257607,0.0346306823194027,0.734553011737625,0.678118767596683,-0.024175123989029,0.00154057147060205
2020-04-21 18:26:31.6440,-0.02410888671875,-0.988372802734375,-0.0657806396484375,-0.0382680259644985,0.0422782152891159,0.0375380553305149,0.73472674674335,0.677929686155335,-0.0241758657839636,0.00186433979144852
2020-04-21 18:26:31.6540,-0.03369140625,-1.00137329101562,-0.0724639892578125,-0.0255572907626629,0.0213708020746708,0.0307291503995657,0.73486429626959,0.677777503686437,-0.0242414318397923,0.00211531253947706
2020-04-21 18:26:31.6640,-0.04644775390625,-1.01296997070312,-0.0828704833984375,-0.0054640076123178,-0.0102696819230914,0.01678909920156,0.734905307574149,0.677728981865437,-0.0243491833495733,0.00217561696813433
2020-04-21 18:26:31.6740,-0.056732177734375,-1.01718139648438,-0.0953521728515625,0.0113075152039528,-0.0481507517397404,-0.00448263250291348,0.734871528040503,0.677760779537322,-0.0244951585199213,0.00203720530660403
2020-04-21 18:26:31.6840,-0.054962158203125,-1.00888061523438,-0.0983123779296875,0.02577487193048,-0.055705338716507,-0.0291514936834574,0.734785476359282,0.677851038384917,-0.0245996783977589,0.00176898690744645
2020-04-21 18:26:31.6939,-0.0420989990234375,-0.99481201171875,-0.0925140380859375,0.0238736402243376,-0.0620295479893684,-0.0404062792658806,0.734703711484244,0.677937666745802,-0.0246754011963449,0.00144945311558766
2020-04-21 18:26:31.7040,-0.030731201171875,-0.988235473632812,-0.0828857421875,0.0056677395477891,-0.0351673066616058,-0.0356669165194035,0.734653924797165,0.67799215879668,-0.0246741469481218,0.00119576867389564
2020-04-21 18:26:31.7140,-0.0302276611328125,-0.992446899414062,-0.0729522705078125,-0.0076475334353745,-0.0259541030973196,-0.0301741473376751,0.734640375546905,0.678008748059463,-0.0246305506433549,0.000996065332984835
2020-04-21 18:26:31.7240,-0.030792236328125,-0.9962158203125,-0.0654296875,-0.0171438325196505,-0.0023345269728452,-0.0253980346024036,0.734663599409098,0.677987648124805,-0.0245234811555991,0.000862302426523751
2020-04-21 18:26:31.7340,-0.034759521484375,-1.00563049316406,-0.0634765625,-0.0160716436803341,-0.000908936897758394,-0.0413682125508785,0.734715184704074,0.677936955821513,-0.0243835893047169,0.000722405244369049
2020-04-21 18:26:31.7440,-0.039306640625,-1.01898193359375,-0.06768798828125,-0.00115288246888667,-0.00766351213678718,-0.0560337081551552,0.734716714416452,0.677941111419611,-0.0242268611210064,0.000508138229518456
2020-04-21 18:26:31.7540,-0.0540618896484375,-1.03804016113281,-0.079742431640625,0.0371279269456863,-0.0312319546937943,-0.080649308860302,0.734627860912532,0.67804187570907,-0.0241058407795967,0.000170869281107326
2020-04-21 18:26:31.7640,-0.0670928955078125,-1.05604553222656,-0.0963592529296875,0.073837473988533,-0.0653739497065544,-0.130504742264748,0.734436812506888,0.678253766565179,-0.0239627116661466,-0.000430144713644329
2020-04-21 18:26:31.7740,-0.0674285888671875,-1.071044921875,-0.106582641601562,0.0998032912611961,-0.0940434113144875,-0.173119857907295,0.734145621049781,0.678575119115254,-0.0237539722971776,-0.00132801026156298
2020-04-21 18:26:31.7840,-0.0603485107421875,-1.07600402832031,-0.11529541015625,0.0838637426495552,-0.124897196888924,-0.208822458982468,0.733867387045573,0.678881982111737,-0.0234913687359113,-0.00246336961412801
2020-04-21 18:26:31.7940,-0.0433502197265625,-1.07058715820312,-0.113113403320312,0.0277139190584421,-0.109159246087074,-0.210730075836182,0.733769765438945,0.678993145427305,-0.0231841521125682,-0.00356859653520748
2020-04-21 18:26:31.8040,-0.0156707763671875,-1.08137512207031,-0.0965576171875,-0.0338679514825344,-0.0677148625254631,-0.17163859307766,0.733869959036199,0.678891386564035,-0.0228499918601544,-0.00438706568902916
2020-04-21 18:26:31.8139,0.008880615234375,-1.11630249023438,-0.0851593017578125,-0.0646857842803001,0.00326450285501778,-0.0964320003986359,0.734068372339046,0.678685761937224,-0.0225194474068714,-0.00470486595793799
2020-04-21 18:26:31.8240,0.0185699462890625,-1.15974426269531,-0.084320068359375,-0.0754004791378975,0.0719884410500526,-0.031859926879406,0.734306156250436,0.678440378233377,-0.0221869228216616,-0.00456755196654321
2020-04-21 18:26:31.8340,0.0164337158203125,-1.21174621582031,-0.0909423828125,-0.0487086847424507,0.0846632197499275,0.0136340530589223,0.734449995959059,0.678294420503781,-0.0219672103909694,-0.0041622369968077
2020-04-21 18:26:31.8450,-3.0517578125e-05,-1.25738525390625,-0.108001708984375,0.0722635462880135,0.0997018292546272,0.0283882319927216,0.73387842660494,0.678928982652851,-0.0215908781068802,-0.00342424596005575
2020-04-21 18:26:31.8540,-0.0312042236328125,-1.26602172851562,-0.125396728515625,0.249458834528923,0.0930801406502724,0.0478705875575542,0.733383017993744,0.67946726169456,-0.0215351785253354,-0.00313453179363525
2020-04-21 18:26:31.8650,-0.0632476806640625,-1.306396484375,-0.123138427734375,0.430539667606354,0.0684371143579483,0.0931770801544189,0.731967479076905,0.680993261636548,-0.0215692432280066,-0.00256025896898205
2020-04-21 18:26:31.8740,-0.0554962158203125,-1.36799621582031,-0.123870849609375,0.510977268218994,0.0252395756542683,-0.0222475156188011,0.730233966450372,0.682855585851853,-0.021458344544495,-0.00247841935291271
2020-04-21 18:26:31.8850,-0.0553741455078125,-1.308349609375,-0.103500366210938,0.591403901576996,-0.0382413938641548,-0.0795491561293602,0.728225126092356,0.685002168805672,-0.0212726070991959,-0.00276959320138997
2020-04-21 18:26:31.8940,-0.0435943603515625,-1.21148681640625,-0.09197998046875,0.672525405883789,0.0318141207098961,-0.132632613182068,0.725930717837245,0.68744801879209,-0.0207466429829738,-0.00306450062307471
2020-04-21 18:26:31.9090,-0.0155792236328125,-1.12834167480469,-0.0788726806640625,0.715493381023407,0.0447554886341095,-0.159474611282349,0.722355865467615,0.691232829236687,-0.0196829806313606,-0.00342923948461649
2020-04-21 18:26:31.9150,0.0034027099609375,-1.06962585449219,-0.0366363525390625,0.657858550548553,0.0837758556008339,-0.123450562357903,0.721234923444626,0.692411736713217,-0.0193482144663221,-0.00343782817708801
2020-04-21 18:26:31.9240,0.011962890625,-1.00413513183594,-0.0321044921875,0.638661682605743,0.0866251736879349,-0.0649100244045258,0.719032802069982,0.694713406401688,-0.018824124651258,-0.00328098221073799
2020-04-21 18:26:31.9340,0.00933837890625,-0.94061279296875,-0.0287017822265625,0.638694226741791,0.0929025113582611,0.00330205331556499,0.716834656750162,0.696991666966964,-0.0185060849364216,-0.0028663357821723
2020-04-21 18:26:31.9440,0.0134124755859375,-0.901809692382812,-0.03070068359375,0.623654782772064,0.0971856713294983,0.0467086508870125,0.714681626013537,0.699206222305686,-0.0183198866502079,-0.00228339238474789
2020-04-21 18:26:31.9540,0.015228271484375,-0.864547729492188,-0.0252227783203125,0.589067816734314,0.110227175056934,0.0551639199256897,0.712639773323952,0.701294179435975,-0.0181211319631,-0.00162847854919414
2020-04-21 18:26:31.9640,0.014617919921875,-0.83380126953125,-0.0178680419921875,0.541666448116302,0.122905947268009,0.0353593230247498,0.710763182829201,0.703205179128477,-0.0178094910156877,-0.000998003583297478
2020-04-21 18:26:31.9740,0.0095062255859375,-0.813034057617188,-0.0104217529296875,0.484658032655716,0.136365294456482,0.0172471646219492,0.709082118038823,0.7049112534471,-0.0173931382391387,-0.000391641940161009
2020-04-21 18:26:31.9840,0.0030670166015625,-0.801788330078125,0.00018310546875,0.426170498132706,0.140449792146683,0.00740119069814682,0.70760180514609,0.706408739441817,-0.0169216599791747,0.000188726697921215
2020-04-21 18:26:31.9940,-0.000946044921875,-0.791183471679688,0.0107269287109375,0.367226481437683,0.147650182247162,0.000810666242614388,0.706328987405468,0.707693309884599,-0.0163997367683764,0.000767677846703959
2020-04-21 18:26:32.0040,-0.0030975341796875,-0.778106689453125,0.0194549560546875,0.303069323301315,0.167815372347832,-0.0223015770316124,0.704847961104848,0.709191205479834,-0.0153193638225788,0.00158205198085227
2020-04-21 18:26:32.0150,-0.006744384765625,-0.76446533203125,0.027557373046875,0.180459529161453,0.192147076129913,-0.0898981988430023,0.704464792735407,0.709581019677311,-0.0148602837551401,0.0018177669497588
2020-04-21 18:26:32.0240,-0.016326904296875,-0.753952026367188,0.0311737060546875,0.180459529161453,0.192147076129913,-0.0898981988430023,0.703855358669231,0.710204388284957,-0.0138721334265568,0.00221919976438542
2020-04-21 18:26:32.0340,-0.02935791015625,-0.746200561523438,0.035186767578125,0.0923767983913422,0.138287305831909,-0.0891410633921623,0.703432012537385,0.710641133671933,-0.0128916129572618,0.00252768400604905
2020-04-21 18:26:32.0440,-0.04498291015625,-0.743194580078125,0.0351715087890625,0.0923767983913422,0.138287305831909,-0.0891410633921623,0.703117315560691,0.710965648327141,-0.0120986846181812,0.0027403080129769
2020-04-21 18:26:32.0540,-0.06195068359375,-0.738449096679688,0.032440185546875,0.0866414159536362,0.0816791504621506,-0.0529249981045723,0.702678351556333,0.7114082613943,-0.0115299938705234,0.00291189205838915
2020-04-21 18:26:32.0640,-0.0740966796875,-0.728500366210938,0.033599853515625,0.0844602882862091,0.0192035213112831,-0.00657854042947292,0.702539317942748,0.711545383328738,-0.0115325402137493,0.00294528849457134
2020-04-21 18:26:32.0730,-0.07257080078125,-0.707000732421875,0.0399017333984375,0.0514336302876472,-0.035820048302412,0.0337880589067936,0.702366385693993,0.711712269282891,-0.0117610998418301,0.0029635333411265
2020-04-21 18:26:32.0840,-0.0641937255859375,-0.681640625,0.04254150390625,-0.0118555938825011,-0.0632767081260681,0.0412720739841461,0.702411528820512,0.71166196014817,-0.0121195215509991,0.00290100938807566
2020-04-21 18:26:32.0940,-0.0550994873046875,-0.660476684570312,0.0423431396484375,-0.0914401710033417,-0.0779544562101364,0.0109498528763652,0.702737477862595,0.711335682489108,-0.0124243032289802,0.00268713869160915
2020-04-21 18:26:32.1040,-0.048004150390625,-0.638671875,0.04156494140625,-0.260987132787704,-0.0696006491780281,-0.0903701111674309,0.703787488397039,0.710296794365728,-0.0125447536847311,0.00206500473309612
2020-04-21 18:26:32.1140,-0.03924560546875,-0.624588012695312,0.037261962890625,-0.260987132787704,-0.0696006491780281,-0.0903701111674309,0.704297617751678,0.70979294345471,-0.0124798160703514,0.00175989830965496
2020-04-21 18:26:32.1240,-0.029541015625,-0.614059448242188,0.028717041015625,-0.366227000951767,-0.0616942569613457,-0.157804012298584,0.70560262642385,0.708503200360319,-0.0121318154026988,0.000983726580927597
2020-04-21 18:26:32.1340,-0.023773193359375,-0.60467529296875,0.0207061767578125,-0.479368448257446,-0.0464362092316151,-0.254869848489761,0.707298145401714,0.706823660684315,-0.0113858427681704,-9.37687491910706e-05
2020-04-21 18:26:32.1440,-0.022125244140625,-0.59930419921875,0.0100555419921875,-0.673076391220093,-0.0307986587285995,-0.46643403172493,0.710502720716025,0.703626356754336,-0.00950058876514258,-0.00236066703741565
2020-04-21 18:26:32.1540,-0.0209503173828125,-0.597015380859375,0.002349853515625,-0.673076391220093,-0.0307986587285995,-0.46643403172493,0.712973470174082,0.701134318798564,-0.00783921407609767,-0.00424788811876447
2020-04-21 18:26:32.1640,-0.0135955810546875,-0.589096069335938,0.0023345947265625,-0.737404525279999,-0.0276824943721294,-0.528862774372101,0.714289327659343,0.699796524533162,-0.00693768035526369,-0.00523920171027498
2020-04-21 18:26:32.1739,-0.003326416015625,-0.567352294921875,0.0047454833984375,-0.780283570289612,-0.00117019296158105,-0.522474646568298,0.718378657926677,0.695594172102229,-0.00426039878522276,-0.00791836947062988
2020-04-21 18:26:32.1850,0.00439453125,-0.543197631835938,0.008026123046875,-0.807212114334106,0.0131150027737021,-0.451494485139847,0.721239246981033,0.692619212427888,-0.00287795919307602,-0.00918109693272087
2020-04-21 18:26:32.1940,0.004486083984375,-0.512130737304688,0.0055999755859375,-0.848392307758331,0.0124846324324608,-0.287494093179703,0.724237856480238,0.689476783083269,-0.00214725165883868,-0.00983270768259695
2020-04-21 18:26:32.2050,0.00439453125,-0.471023559570312,-0.0005950927734375,-0.892883598804474,0.00775539129972458,-0.0910516157746315,0.727478176073884,0.686057377667436,-0.00209533801711213,-0.00981771067461546
2020-04-21 18:26:32.2140,0.006591796875,-0.424652099609375,-0.0214385986328125,-1.21091485023499,0.0160468779504299,0.198237717151642,0.731242255970504,0.68205059071121,-0.00250958648035717,-0.00924428306335361
2020-04-21 18:26:32.2250,-0.0020904541015625,-0.38641357421875,-0.0638885498046875,-1.21091485023499,0.0160468779504299,0.198237717151642,0.736051958830555,0.676879455660141,-0.00416650520507784,-0.00666007817607797
2020-04-21 18:26:32.2340,-0.0598297119140625,-0.687881469726562,-0.063812255859375,-2.79433989524841,-1.3277839422226,7.06116390228271,0.73931850076681,0.673291810475046,-0.00924679253372002,-0.000888368723834677
2020-04-21 18:26:32.2480,-0.359786987304688,-4.87478637695312,-0.116867065429688,-2.79433989524841,-1.3277839422226,7.06116390228271,0.748961895625375,0.660204779240943,-0.0492135389420624,0.0276361349226305
2020-04-21 18:26:32.2530,-0.504608154296875,-5.015625,-1.25970458984375,-0.60143655538559,-1.62966072559357,5.36022281646729,0.747904601658885,0.660411490683762,-0.0583881251243474,0.0329574973986107
2020-04-21 18:26:32.2640,0.140655517578125,-1.49263000488281,-0.30438232421875,2.77194881439209,0.70205557346344,-3.42417502403259,0.735723475517042,0.674464047884856,-0.0550758935091014,0.0278542929918059
2020-04-21 18:26:32.2740,0.310745239257812,-0.81219482421875,-0.220993041992188,1.60929894447327,1.15427923202515,-4.34211587905884,0.728748242072447,0.683534624686357,-0.0376028840367633,0.0171008667416932
2020-04-21 18:26:32.2839,0.298873901367188,-0.625656127929688,-0.220230102539062,-0.0473704449832439,1.066938996315,-3.73791098594666,0.726495914838956,0.686869056842517,-0.0194143265955196,0.00613745854756212
2020-04-21 18:26:32.2950,0.23193359375,-0.707305908203125,0.0956878662109375,-0.899702906608582,0.686612725257874,-2.08241701126099,0.728484384615857,0.685034591212917,-0.00598724398526964,-0.00150436766409072
2020-04-21 18:26:32.3040,0.0767364501953125,-0.558944702148438,0.0814971923828125,-0.899702906608582,0.686612725257874,-2.08241701126099,0.73132839594178,0.68201444727931,-0.000416292502698537,-0.00385975285113212
2020-04-21 18:26:32.3140,-0.0155792236328125,-0.543853759765625,0.0865325927734375,-0.258239537477493,0.234410911798477,1.2374814748764,0.732919425078646,0.680313797048682,-0.00136665758058636,-0.000621397336239417
2020-04-21 18:26:32.3240,-0.0895843505859375,-0.636764526367188,0.0228729248046875,-0.127414420247078,-0.00151560502126813,1.75917398929596,0.733497990505891,0.679641534693691,-0.00620167727189413,0.0054425584093286
2020-04-21 18:26:32.3330,-0.0964813232421875,-0.868865966796875,-0.0340423583984375,-0.127414420247078,-0.00151560502126813,1.75917398929596,0.733708537139322,0.679346295849682,-0.00926659368606608,0.00863267546306589
2020-04-21 18:26:32.3439,-0.098907470703125,-1.12242126464844,-0.0727996826171875,-0.0765536278486252,-0.119233183562756,1.26702201366425,0.734304005607114,0.678383223628476,-0.0177596420173338,0.016686052984457
2020-04-21 18:26:32.3540,-0.122329711914062,-1.21438598632812,-0.141983032226562,-0.0765536278486252,-0.119233183562756,1.26702201366425,0.73412963349312,0.678371004678398,-0.021604667083962,0.0199924885661891
2020-04-21 18:26:32.3640,-0.128143310546875,-1.18133544921875,-0.145660400390625,0.174258351325989,-0.0247255861759186,0.227988421916962,0.733535253206116,0.678904970740513,-0.023462735394349,0.0215307467468604
2020-04-21 18:26:32.3750,-0.106246948242188,-1.09956359863281,-0.113998413085938,0.174258351325989,-0.0247255861759186,0.227988421916962,0.733068284854422,0.679394516506985,-0.0235936408151248,0.0218476725058667
2020-04-21 18:26:32.3840,-0.074462890625,-1.02340698242188,-0.0605621337890625,0.0953496918082237,0.0510780960321426,-0.0782207697629929,0.732893935717405,0.679611870957047,-0.0228941692565676,0.0216804256638669
2020-04-21 18:26:32.3940,-0.07220458984375,-0.971572875976562,-0.0166168212890625,0.0340394601225853,0.0964999049901962,-0.141152337193489,0.732831432727997,0.679701174780595,-0.0222124756940455,0.0217027678246915
2020-04-21 18:26:32.4040,-0.10113525390625,-0.943466186523438,-0.007598876953125,-0.0110902013257146,0.0409796573221684,0.0874859094619751,0.732806705926948,0.679720909464291,-0.0220640521248827,0.0220679539006962
2020-04-21 18:26:32.4140,-0.133392333984375,-0.939056396484375,-0.0108642578125,-0.0844957083463669,-0.0251152068376541,0.097172886133194,0.732966519981839,0.679524316913538,-0.0223765762181956,0.0224960473339797
2020-04-21 18:26:32.4240,-0.148574829101562,-0.9461669921875,-0.02532958984375,-0.118509069085121,-0.0830512121319771,-0.0206181928515434,0.733317160186712,0.679134619752478,-0.0227345833883471,0.0224777567277305
2020-04-21 18:26:32.4340,-0.143508911132812,-0.960556030273438,-0.046875,-0.117523968219757,-0.127842918038368,-0.149133294820786,0.733728451027259,0.67870854377181,-0.0228382131696329,0.0218102907707799
2020-04-21 18:26:32.4440,-0.12835693359375,-0.984375,-0.0754241943359375,-0.0872853696346283,-0.172225296497345,-0.212254196405411,0.734087679261211,0.678359254758899,-0.0227690977770675,0.020629319578198
2020-04-21 18:26:32.4540,-0.1102294921875,-1.01138305664062,-0.0980377197265625,-0.0485504902899265,-0.191572368144989,-0.209082648158073,0.734325073192327,0.678144452621432,-0.0227307058168194,0.0192380683264245
2020-04-21 18:26:32.4640,-0.0899658203125,-1.01766967773438,-0.104324340820312,-0.0197321586310863,-0.172761917114258,-0.181500017642975,0.734444466902357,0.678050672036518,-0.022751943928541,0.0179153630945758
2020-04-21 18:26:32.4740,-0.0632781982421875,-1.00495910644531,-0.102371215820312,-0.00745072588324547,-0.119041703641415,-0.157314524054527,0.73449050734796,0.678029816390193,-0.0227247495280495,0.0168180991941595
2020-04-21 18:26:32.4840,-0.0400848388671875,-0.993850708007812,-0.0986175537109375,-0.00745072588324547,-0.119041703641415,-0.157314524054527,0.734527189645403,0.678016183319061,-0.0225524576640059,0.0159765291096714
2020-04-21 18:26:32.4940,-0.0221405029296875,-0.987167358398438,-0.0940093994140625,-0.0143808033317327,-0.0269770231097937,-0.139704629778862,0.734584612444825,0.677979652492792,-0.0222414620569099,0.01530866847932
2020-04-21 18:26:32.5040,-0.015960693359375,-0.988052368164062,-0.098968505859375,-0.00106872653122991,-0.00338434497825801,-0.119374066591263,0.734629843941023,0.677954516289066,-0.0218528027897698,0.0148027444981926
2020-04-21 18:26:32.5140,-0.01617431640625,-0.99359130859375,-0.108016967773438,0.0212935712188482,0.0121030015870929,-0.0868997424840927,0.734559356819034,0.678034379307222,-0.0217848643250925,0.0147428448209896
2020-04-21 18:26:32.5240,-0.0140533447265625,-0.997055053710938,-0.111831665039062,0.0264752823859453,0.018736669793725,-0.0393511354923248,0.734535746162585,0.678060677836749,-0.0217242296455461,0.0147990752160819
2020-04-21 18:26:32.5340,-0.0117645263671875,-0.99761962890625,-0.104904174804688,0.0272627789527178,0.0201497431844473,0.0158242359757423,0.734537288456725,0.67805418559965,-0.0217502432331085,0.01498066009023
2020-04-21 18:26:32.5440,-0.0133056640625,-0.998046875,-0.0947265625,0.0360717177391052,0.0225580390542746,0.0563993602991104,0.734516662385525,0.678067347882852,-0.0218381906654146,0.0152655770151578
2020-04-21 18:26:32.5540,-0.018951416015625,-0.996673583984375,-0.0888671875,0.0464127734303474,0.00734632974490523,0.0798674002289772,0.734434262589912,0.678144466161512,-0.0219892831030639,0.0155842348911767
2020-04-21 18:26:32.5639,-0.030364990234375,-0.996261596679688,-0.0808258056640625,0.0412454418838024,-0.00123916880693287,0.0907272398471832,0.734350133706476,0.678222836809001,-0.0221790677852582,0.015866748507766
2020-04-21 18:26:32.5729,-0.0439605712890625,-0.996658325195312,-0.07647705078125,0.0412454418838024,-0.00123916880693287,0.0907272398471832,0.734281648330611,0.678287971439754,-0.0223322560332854,0.0160361798907508
2020-04-21 18:26:32.5840,-0.054290771484375,-0.99505615234375,-0.0733795166015625,0.0181265398859978,-0.00985129922628403,0.0546664409339428,0.734311477044797,0.678247117979604,-0.0224874058874258,0.0161807975422785
2020-04-21 18:26:32.5940,-0.0591888427734375,-0.990005493164062,-0.0636138916015625,-0.000306529836962,-0.00147619016934186,0.0353598557412624,0.734412397052634,0.678135546677268,-0.0225220430934126,0.0162286463707297
2020-04-21 18:26:32.6040,-0.0580596923828125,-0.98486328125,-0.0600433349609375,-0.0165036097168922,0.0120686469599605,0.0231969319283962,0.734555014037738,0.677983200702021,-0.0224479735429946,0.0162419026494351
2020-04-21 18:26:32.6140,-0.0596923828125,-0.982315063476562,-0.0581817626953125,-0.0295408479869366,0.0109466575086117,0.0207457579672337,0.734715352471928,0.67781327304333,-0.0223236640450722,0.0162533612505789
2020-04-21 18:26:32.6240,-0.0621337890625,-0.984176635742188,-0.0619659423828125,-0.0261354632675648,0.000547013303730637,0.0210466962307692,0.734861075987667,0.67765814079376,-0.0222354070755084,0.0162551495342071
2020-04-21 18:26:32.6340,-0.0634765625,-0.989547729492188,-0.070465087890625,-0.0126433568075299,-0.00529356533661485,0.0119517343118787,0.734948642433972,0.677564118984749,-0.0222109357235614,0.0162490609934084
2020-04-21 18:26:32.6440,-0.0630950927734375,-0.995864868164062,-0.0752105712890625,-0.0028866003267467,-0.00980682391673326,-0.00382749503478408,0.734969626139424,0.677541105670676,-0.0222266217739643,0.0162381052943825
2020-04-21 18:26:32.6540,-0.0609130859375,-1.00114440917969,-0.078155517578125,-0.00708214426413178,-0.0110467923805118,-0.0111224260181189,0.734989667312543,0.677520109553642,-0.0222357546942634,0.0161944838570011
2020-04-21 18:26:32.6640,-0.0574188232421875,-1.00117492675781,-0.0776824951171875,-0.00376570969820023,-0.00565522257238626,-0.00513004697859287,0.734987105920226,0.67752337169568,-0.0222435365191891,0.0161635398427034
2020-04-21 18:26:32.6730,-0.0531463623046875,-0.994842529296875,-0.0753936767578125,-0.0109700933098793,-0.00506426719948649,0.00483523542061448,0.734969582395038,0.677541089334425,-0.0222713010375165,0.0161794427493792
2020-04-21 18:26:32.6830,-0.050933837890625,-0.987274169921875,-0.0705108642578125,-0.0259841959923506,0.00112252240069211,0.0171475615352392,0.73497992805411,0.677526129231418,-0.0223340952686495,0.0162492385913205
2020-04-21 18:26:32.6939,-0.050445556640625,-0.986831665039062,-0.0662994384765625,-0.0437647923827171,0.00356117892079055,0.0222014430910349,0.735046323902825,0.677448500849128,-0.0224175946981922,0.0163670969374183
2020-04-21 18:26:32.7040,-0.052001953125,-0.989578247070312,-0.0611114501953125,-0.0678994208574295,0.00526214018464088,0.0147983869537711,0.735218581629473,0.677256562179953,-0.0224870765002062,0.0164777911569259
2020-04-21 18:26:32.7140,-0.0539093017578125,-0.98681640625,-0.05718994140625,-0.0774058401584625,-0.0106566390022635,-0.00507358834147453,0.735472911041369,0.67697832708136,-0.0225196432669093,0.0165168838946587
2020-04-21 18:26:32.7240,-0.0609588623046875,-0.991653442382812,-0.0567779541015625,-0.0708872228860855,-0.0413599573075771,-0.0339611619710922,0.735730328739193,0.676700702269126,-0.0225549351035543,0.0163804097710047
2020-04-21 18:26:32.7340,-0.0751800537109375,-1.00706481933594,-0.06475830078125,-0.0476942844688892,-0.0771621614694595,-0.0818021893501282,0.735941537409341,0.676479272661021,-0.0225869686258538,0.0159898725412924
2020-04-21 18:26:32.7440,-0.0911865234375,-1.02163696289062,-0.0812225341796875,-0.00957699306309223,-0.106571450829506,-0.156211167573929,0.736040253167784,0.676390540334388,-0.0225268882279054,0.0152683322476986
2020-04-21 18:26:32.7540,-0.0992279052734375,-1.03532409667969,-0.09326171875,0.0134412404149771,-0.115815818309784,-0.240436837077141,0.736039106998249,0.676424183389628,-0.022257709178584,0.0141898371032686
2020-04-21 18:26:32.7640,-0.0983123779296875,-1.04385375976562,-0.0965423583984375,0.0275964736938477,-0.103438504040241,-0.320342063903809,0.735947246250592,0.676569150390785,-0.0217230966443425,0.0128040051484831
2020-04-21 18:26:32.7740,-0.0867919921875,-1.04225158691406,-0.093048095703125,0.0174064207822084,-0.0766034349799156,-0.38785320520401,0.735831496989745,0.676749955936622,-0.0208701379999039,0.0112224113931085
2020-04-21 18:26:32.7840,-0.0691680908203125,-1.040771484375,-0.0823211669921875,-0.0118798287585378,-0.044336836785078,-0.415782570838928,0.735769869336718,0.676875575887568,-0.0197537857121137,0.00958864396781181
2020-04-21 18:26:32.7940,-0.0528564453125,-1.03981018066406,-0.07037353515625,-0.0557974837720394,-0.026608707383275,-0.389034569263458,0.735826396826765,0.676867638222961,-0.0185707489623746,0.00805241220929074
2020-04-21 18:26:32.8040,-0.0433502197265625,-1.04487609863281,-0.0673980712890625,-0.0674786418676376,-0.0197856891900301,-0.329752326011658,0.735978606493069,0.676743340187302,-0.0175539111674933,0.00676775438219036
2020-04-21 18:26:32.8139,-0.04119873046875,-1.06658935546875,-0.075958251953125,-0.0352943427860737,-0.0165097340941429,-0.2760369181633,0.736134405211512,0.676602627863317,-0.0167808577606781,0.00578137052638652
2020-04-21 18:26:32.8240,-0.0391387939453125,-1.09317016601562,-0.088165283203125,0.024645958095789,-0.0131656033918262,-0.235618650913239,0.736183215244101,0.676569663890949,-0.016202349291117,0.00502467638709891
2020-04-21 18:26:32.8340,-0.038177490234375,-1.12254333496094,-0.10394287109375,0.0997079536318779,-0.0123818349093199,-0.235920384526253,0.736014344158688,0.676769874464335,-0.0156933448130511,0.00437505871537254
2020-04-21 18:26:32.8440,-0.0380096435546875,-1.15103149414062,-0.117599487304688,0.160672500729561,-0.00562486238777637,-0.264075070619583,0.735608595395057,0.67722875619385,-0.0150934158859379,0.00365991283186758
2020-04-21 18:26:32.8540,-0.0366363525390625,-1.17018127441406,-0.124847412109375,0.202708899974823,0.00425040489062667,-0.292023330926895,0.735004242893004,0.677909584665698,-0.014151431112858,0.00266363381876055
2020-04-21 18:26:32.8640,-0.0308074951171875,-1.17652893066406,-0.125503540039062,0.241621151566505,0.00640969583764672,-0.322587639093399,0.734264461707841,0.678735573074068,-0.0130826147818326,0.00160228186666599
2020-04-21 18:26:32.8740,-0.0236968994140625,-1.1812744140625,-0.122787475585938,0.304669618606567,0.0077367490157485,-0.259925067424774,0.733364358345964,0.679729058491435,-0.0120342000289769,0.00055043602952661
2020-04-21 18:26:32.8840,-0.0188446044921875,-1.19740295410156,-0.116561889648438,0.393347829580307,-0.00204051402397454,-0.174788057804108,0.732180836767807,0.681016342453055,-0.0113106902104258,-0.000178518407434616
2020-04-21 18:26:32.8940,-0.012451171875,-1.24758911132812,-0.110382080078125,0.46926361322403,-0.0208269841969013,-0.158429324626923,0.730726973382703,0.682584678307364,-0.010754961143044,-0.000760343211531603
2020-04-21 18:26:32.9040,-0.0001220703125,-1.23538208007812,-0.114028930664062,0.533567249774933,-0.00564164062961936,-0.115591309964657,0.729016479680696,0.684416538586781,-0.0103624590562981,-0.00126234114279012
2020-04-21 18:26:32.9140,-0.0045166015625,-1.177978515625,-0.0955810546875,0.572318136692047,0.00218006363138556,-0.117884293198586,0.727126346433531,0.686429320837716,-0.00997042623668656,-0.00162923821290305
2020-04-21 18:26:32.9240,0.0084686279296875,-1.14768981933594,-0.0991973876953125,0.565029323101044,0.00587386824190617,-0.112978748977184,0.725172062354907,0.688498360884217,-0.0095672411319185,-0.00198870229077126
2020-04-21 18:26:32.9340,0.007049560546875,-1.10040283203125,-0.0753631591796875,0.5576092004776,0.00233932072296739,-0.115011803805828,0.723248809984032,0.690522834089345,-0.00916294772717554,-0.00232698234856455
2020-04-21 18:26:32.9430,0.00830078125,-1.06977844238281,-0.0708465576171875,0.546976268291473,0.0106891291216016,-0.119098424911499,0.721345789394056,0.692514680196171,-0.00874445484211755,-0.00268409123848343
2020-04-21 18:26:32.9540,0.0107269287109375,-1.03457641601562,-0.059600830078125,0.538430988788605,0.0146987847983837,-0.125981628894806,0.719479282840883,0.694457879534078,-0.00828428428152924,-0.00303080018197586
2020-04-21 18:26:32.9640,0.0118408203125,-1.00999450683594,-0.057373046875,0.527266502380371,0.0306167658418417,-0.159398183226585,0.717629960456002,0.696373316412684,-0.00772832834116022,-0.0034230082337906
2020-04-21 18:26:32.9740,0.01507568359375,-0.987350463867188,-0.0477752685546875,0.503681778907776,0.066040001809597,-0.197215065360069,0.715842271512594,0.69821689139598,-0.00694318647825451,-0.00384799253534776
2020-04-21 18:26:32.9830,0.02374267578125,-0.953948974609375,-0.0423126220703125,0.503681778907776,0.066040001809597,-0.197215065360069,0.714971092605455,0.699112393232703,-0.0064563335238066,-0.00406375742813414
2020-04-21 18:26:32.9940,0.02947998046875,-0.924896240234375,-0.0339813232421875,0.435510724782944,0.103972472250462,-0.188658595085144,0.712554641167415,0.701584590647764,-0.00486936157326592,-0.00460812697907223
2020-04-21 18:26:33.0040,0.033233642578125,-0.893295288085938,-0.0208587646484375,0.388551205396652,0.113053053617477,-0.127747848629951,0.711122939201836,0.703040604461433,-0.00393194534392336,-0.00475537856094775
2020-04-21 18:26:33.0140,0.0318756103515625,-0.866470336914062,-0.013214111328125,0.346461534500122,0.114930048584938,-0.0535788051784039,0.709839751498631,0.70434055076367,-0.0032162255712156,-0.00464452746434436
2020-04-21 18:26:33.0240,0.03076171875,-0.849655151367188,-0.009521484375,0.319167077541351,0.117953531444073,0.00889868661761284,0.708680018129103,0.705511748362089,-0.00273820335832186,-0.00427867619382013
2020-04-21 18:26:33.0340,0.0287017822265625,-0.838287353515625,-0.0030059814453125,0.296724885702133,0.127532929182053,0.0369497612118721,0.707606535352411,0.70659280856223,-0.00240015286178962,-0.00371931189033019
2020-04-21 18:26:33.0440,0.0256195068359375,-0.82647705078125,0.002166748046875,0.281105160713196,0.1296147108078,0.0427139066159725,0.706606720782003,0.707596658373417,-0.00208374733151372,-0.00309341260366846
2020-04-21 18:26:33.0540,0.02105712890625,-0.808746337890625,0.0070953369140625,0.280792266130447,0.107737116515636,-0.0519798435270786,0.705633065948794,0.708570675921309,-0.00170477016280022,-0.00258209659288897
2020-04-21 18:26:33.0640,0.015045166015625,-0.785858154296875,0.005889892578125,0.231692612171173,0.158524930477142,-0.0947491452097893,0.704714710048399,0.709486129473106,-0.000926952232912803,-0.00239797544409243
2020-04-21 18:26:33.0740,0.019378662109375,-0.737197875976562,0.0168304443359375,0.183895528316498,0.0797915011644363,-0.0820336192846298,0.703987877677617,0.710208364614953,-0.000206582847311043,-0.00225925594958819
2020-04-21 18:26:33.0840,-0.0006561279296875,-0.75677490234375,0.024505615234375,0.168787956237793,0.0578859373927116,-0.0972996577620506,0.703374266802136,0.71081584283974,0.000355686849855965,-0.00231340775728752
2020-04-21 18:26:33.0940,-0.0078125,-0.703460693359375,0.0319976806640625,0.122052408754826,0.0539202243089676,-0.0431378819048405,0.702856217946689,0.711327600224625,0.000806485929921878,-0.00235194234553249
2020-04-21 18:26:33.1040,0,-0.686676025390625,0.04815673828125,0.0524941012263298,0.0445213951170444,0.0407450310885906,0.702554732989592,0.711625731548465,0.00099892995388441,-0.00216043768280053
2020-04-21 18:26:33.1140,0.0014495849609375,-0.678955078125,0.0608978271484375,-0.00276089902035892,0.00685044936835766,0.107567206025124,0.702476160557053,0.711704598320558,0.000809796185525706,-0.00177561497286065
2020-04-21 18:26:33.1240,-0.00701904296875,-0.662872314453125,0.066131591796875,-0.0657923296093941,0.00983958132565022,0.155927285552025,0.702598335950731,0.711585475581097,0.000369033571224841,-0.00124622450267298
2020-04-21 18:26:33.1340,-0.0079193115234375,-0.640411376953125,0.0655975341796875,-0.153960272669792,0.0192653071135283,0.173929184675217,0.702992062290259,0.711197432585589,-0.000164733541738031,-0.000587455032640564
2020-04-21 18:26:33.1440,-0.0070037841796875,-0.628952026367188,0.068572998046875,-0.254566252231598,0.0175891127437353,0.183652922511101,0.703724525235157,0.710472549535387,-0.00072892883651826,0.000132672497202383
2020-04-21 18:26:33.1540,-0.0123138427734375,-0.618301391601562,0.069915771484375,-0.343682527542114,-0.0055060856975615,0.179047241806984,0.704781721549522,0.709422460138133,-0.00135361916324153,0.000815926719682078
2020-04-21 18:26:33.1640,-0.025360107421875,-0.609939575195312,0.063262939453125,-0.427440017461777,-0.0650011003017426,0.15662956237793,0.706172073771502,0.708036040040013,-0.00205771197401122,0.00131683375724139
2020-04-21 18:26:33.1739,-0.0497894287109375,-0.618316650390625,0.04730224609375,-0.491148144006729,-0.136373817920685,0.101913847029209,0.707796235204538,0.706409292756275,-0.00288512058078236,0.00144104722195008
2020-04-21 18:26:33.1840,-0.0739898681640625,-0.632369995117188,0.03924560546875,-0.532658576965332,-0.191786214709282,0.0366498902440071,0.709613758584629,0.704580173628318,-0.00372020617018151,0.00111920656552071
2020-04-21 18:26:33.1940,-0.0860595703125,-0.622665405273438,0.02410888671875,-0.566084980964661,-0.209571063518524,0.00641795201227069,0.711543070588161,0.702627857350014,-0.00450830800560274,0.000477422900585911
2020-04-21 18:26:33.2039,-0.0802154541015625,-0.602340698242188,0.0271453857421875,-0.611856460571289,-0.212041676044464,0.0425839461386204,0.713604994542607,0.700528037319916,-0.00532420009168471,-0.000183264661709636
2020-04-21 18:26:33.2140,-0.0634613037109375,-0.583099365234375,0.040435791015625,-0.681477069854736,-0.197355151176453,0.138232707977295,0.715856105976775,0.698218688782748,-0.00635270617773456,-0.000584204149392737
2020-04-21 18:26:33.2240,-0.047760009765625,-0.549972534179688,0.0471954345703125,-0.776102900505066,-0.190647706389427,0.289555370807648,0.718398751330271,0.695587877307222,-0.00777764460238365,-0.000497267311709905
2020-04-21 18:26:33.2340,-0.0411376953125,-0.508209228515625,0.0454254150390625,-0.89172750711441,-0.160196602344513,0.439071118831635,0.721284035889827,0.692571617268532,-0.00968828462843509,0.000177948001550888
2020-04-21 18:26:33.2440,-0.034088134765625,-0.461227416992188,0.0351715087890625,-1.03282797336578,-0.11476919054985,0.546988248825073,0.724592074131702,0.689073919526371,-0.0118804633226373,0.00152122494129053
2020-04-21 18:26:33.2540,-0.035980224609375,-0.414459228515625,0.00958251953125,-1.2430567741394,-0.0980988666415215,0.523418724536896,0.728455984096454,0.684939480901774,-0.0141595223909025,0.00304871476787172
2020-04-21 18:26:33.2630,-0.03619384765625,-0.361282348632812,-0.040283203125,-1.92177402973175,0.0628532618284225,1.02118587493896,0.733625283747065,0.679332479517802,-0.0165388381990623,0.00527182608392201
2020-04-21 18:26:33.2740,-0.089874267578125,-0.4783935546875,-0.106185913085938,-4.92151117324829,-1.08404505252838,4.8862509727478,0.744612851264433,0.666775962981949,-0.0276494143418619,0.0140366238069632
2020-04-21 18:26:33.2839,-0.379074096679688,-2.7010498046875,-0.249725341796875,-3.23017191886902,-1.24329936504364,4.50334501266479,0.758791327398241,0.648821415962575,-0.049497596538507,0.0285741069929715
2020-04-21 18:26:33.2930,-0.8089599609375,-5.26055908203125,-0.821258544921875,1.30016565322876,-1.48792171478271,-0.0623949356377125,0.760868586136549,0.645065493793611,-0.0628200616267473,0.0319866097701195
2020-04-21 18:26:33.3040,-0.264068603515625,-3.08982849121094,-0.484039306640625,3.37722229957581,0.17189958691597,-3.33421754837036,0.752766070790762,0.655223011459527,-0.0588372346721042,0.0237534784039562
2020-04-21 18:26:33.3140,-0.0363922119140625,-1.32931518554688,-0.6895751953125,3.00839757919312,0.924300372600555,-4.40576076507568,0.742250073799345,0.668632943218109,-0.0430796267467799,0.0117881698203284
2020-04-21 18:26:33.3240,0.280624389648438,-1.19378662109375,-0.399459838867188,0.988020241260529,1.03585171699524,-4.00929832458496,0.735743056328755,0.676800836247677,-0.0249547908328698,-0.00020379635611119
2020-04-21 18:26:33.3340,0.392379760742188,-0.957534790039062,-0.0114593505859375,-0.384633153676987,0.895253837108612,-2.66514539718628,0.735047367726501,0.677880355187246,-0.00985172464101106,-0.00930240673981679
2020-04-21 18:26:33.3439,0.31500244140625,-0.432052612304688,0.0271148681640625,-0.48797419667244,0.743755102157593,-0.919191896915436,0.736597487098923,0.676203367368818,-0.000781542591193556,-0.0131353397292048
2020-04-21 18:26:33.3540,0.207687377929688,-0.097869873046875,0.109024047851562,-0.514403402805328,0.596356868743896,0.522099435329437,0.738195617971725,0.674485966091088,0.00229508289682631,-0.0114299496066714
2020-04-21 18:26:33.3640,0.0747833251953125,-0.0999908447265625,0.106796264648438,-0.8328458070755,0.258965253829956,1.34830176830292,0.740487177631333,0.672040268006851,0.00068319755303792,-0.00633649603223339
2020-04-21 18:26:33.3740,-0.0029296875,-0.454635620117188,0.02227783203125,-0.947829127311707,-0.0929262116551399,1.69831883907318,0.743583684803136,0.668629550831409,-0.00420788819841955,-0.000348032309154309
2020-04-21 18:26:33.3840,-0.0558013916015625,-0.907180786132812,-0.0600738525390625,-0.658820271492004,-0.256927132606506,1.69355928897858,0.746319365751546,0.665481213441747,-0.0106140845202799,0.0054313966993856
2020-04-21 18:26:33.3940,-0.11163330078125,-1.27716064453125,-0.208694458007812,-0.100404098629951,-0.322394013404846,1.26254761219025,0.747533394667789,0.663936926554205,-0.01673521095722,0.0100754219973721
2020-04-21 18:26:33.4040,-0.142044067382812,-1.484619140625,-0.293853759765625,0.328198373317719,-0.19795036315918,0.553515672683716,0.747024881465815,0.664351641127651,-0.0207776322812235,0.0126100514974657
2020-04-21 18:26:33.4140,-0.0971832275390625,-1.43792724609375,-0.261032104492188,0.450464636087418,-0.00638066744431853,-0.0717285126447678,0.745660396645701,0.66583648731069,-0.0218790199109456,0.013177766414428
2020-04-21 18:26:33.4240,-0.01593017578125,-1.2596435546875,-0.179367065429688,0.368529558181763,0.183854788541794,-0.363854378461838,0.74429865477499,0.667405604833923,-0.0207125058088041,0.0126595118202308
2020-04-21 18:26:33.4340,0.0133056640625,-1.06341552734375,-0.09564208984375,0.2491355240345,0.252136647701263,-0.34596112370491,0.743318888651322,0.668568875686778,-0.0186141115426097,0.0120914469175639
2020-04-21 18:26:33.4440,-0.0220184326171875,-0.9111328125,-0.055755615234375,0.098998486995697,0.209241107106209,-0.1546710729599,0.742774685275412,0.66922212256049,-0.0168595055155485,0.0119697394882353
2020-04-21 18:26:33.4540,-0.080230712890625,-0.831817626953125,-0.0318756103515625,-0.0493851266801357,0.0925752073526382,0.0182655565440655,0.742723890452412,0.669291994951698,-0.0160846551643412,0.0122772925783406
2020-04-21 18:26:33.4640,-0.124114990234375,-0.827667236328125,-0.034454345703125,-0.135787665843964,-0.0145893292501569,0.066459447145462,0.743058071356648,0.668914075175635,-0.0161146936994624,0.0126086982133674
2020-04-21 18:26:33.4740,-0.138656616210938,-0.8690185546875,-0.0580902099609375,-0.139392778277397,-0.0961009636521339,0.0244590044021606,0.743532128585774,0.668377532875102,-0.0164997138919688,0.012617715719692
2020-04-21 18:26:33.4840,-0.125411987304688,-0.943252563476562,-0.0892791748046875,-0.10682524740696,-0.151263281702995,-0.051881305873394,0.743944685069577,0.6679162201197,-0.0169265574267166,0.0121540162670508
2020-04-21 18:26:33.4940,-0.0995635986328125,-1.0128173828125,-0.118637084960938,-0.0512128546833992,-0.162383586168289,-0.114635236561298,0.744215863675418,0.667620717373896,-0.0172301722822405,0.0113334527016669
2020-04-21 18:26:33.5040,-0.0736083984375,-1.04444885253906,-0.13427734375,0.0120012694969773,-0.152290463447571,-0.152641743421555,0.744285177732211,0.667556128205635,-0.0173702046678013,0.0103279181363658
2020-04-21 18:26:33.5150,-0.0536651611328125,-1.04341125488281,-0.137054443359375,0.0394270345568657,-0.121846541762352,-0.170886516571045,0.744194896338277,0.667672782974668,-0.0173401661384139,0.0092913818786884
2020-04-21 18:26:33.5230,-0.0387115478515625,-1.01850891113281,-0.129547119140625,0.0219881236553192,-0.0831726491451263,-0.172724902629852,0.744094135483888,0.667802843462868,-0.0171401151454212,0.0083364413388303
2020-04-21 18:26:33.5340,-0.0250244140625,-0.986099243164062,-0.118988037109375,-0.00934476591646671,-0.0475038699805737,-0.161786764860153,0.744080663856741,0.667835658769326,-0.016818982060964,0.00752465235640644
2020-04-21 18:26:33.5440,-0.0177001953125,-0.96185302734375,-0.11224365234375,-0.0334706082940102,-0.0292598847299814,-0.140966713428497,0.744161460767344,0.667761965661634,-0.0164533921255074,0.00685298561846997
2020-04-21 18:26:33.5540,-0.0130462646484375,-0.9588623046875,-0.111618041992188,-0.0440793111920357,-0.011420433409512,-0.109898008406162,0.744302268530847,0.667618491834087,-0.0161078672205757,0.00634184788675441
2020-04-21 18:26:33.5639,-0.010162353515625,-0.972976684570312,-0.115737915039062,-0.0357047356665134,-0.00333134806714952,-0.0736041814088821,0.744453116813759,0.667460310884073,-0.0158233657524353,0.00599260853727524
2020-04-21 18:26:33.5729,-0.0031280517578125,-0.98919677734375,-0.116226196289062,-0.025346901267767,0.010062487795949,-0.0224661603569984,0.744621948178837,0.667272260124414,-0.015809090231345,0.00599648437564022
2020-04-21 18:26:33.5840,0.0035552978515625,-1.00552368164062,-0.113998413085938,-0.0129448268562555,0.0183153580874205,0.0104230800643563,0.744766985338888,0.667109319171112,-0.0158078310770221,0.0061160690741516
2020-04-21 18:26:33.5940,0.0001983642578125,-1.00180053710938,-0.1119384765625,-0.00634578010067344,0.0279445499181747,0.0171499587595463,0.744859652578533,0.667004617733271,-0.0157916188766862,0.00628988524009602
2020-04-21 18:26:33.6040,-0.0056915283203125,-0.995498657226562,-0.10797119140625,-0.0072174328379333,0.0237239710986614,0.0222922563552856,0.744889989241012,0.666969876278123,-0.0157570326488065,0.00646560037236589
2020-04-21 18:26:33.6140,-0.01214599609375,-0.994064331054688,-0.103225708007812,-0.00814128294587135,0.0192775577306747,0.043664388358593,0.744938906579525,0.666913105676344,-0.0157637944159993,0.00666616282761971
2020-04-21 18:26:33.6230,-0.01214599609375,-0.994064331054688,-0.103225708007812,-0.000363787810783833,0.0182935204356909,0.0668312311172485,0.744980278473167,0.666862659376893,-0.0158351561747538,0.00691563762369386
2020-04-21 18:26:33.6340,-0.0178985595703125,-0.998321533203125,-0.101776123046875,0.0081138527020812,0.0259176176041365,0.078388012945652,0.744998925906729,0.666835997829444,-0.0159396001519242,0.00723059773646058
2020-04-21 18:26:33.6440,-0.0213623046875,-0.993881225585938,-0.102630615234375,0.0048184571787715,0.0366762541234493,0.0731852650642395,0.745012820303751,0.666815687823142,-0.0159876699576391,0.00755846977413239
2020-04-21 18:26:33.6540,-0.0257720947265625,-0.984115600585938,-0.105484008789062,-0.01126410625875,0.0392030626535416,0.0583538524806499,0.745052321107902,0.666769456378066,-0.0159374531625393,0.00784400661133046
2020-04-21 18:26:33.6640,-0.0363006591796875,-0.98193359375,-0.111099243164062,-0.0183720830827951,0.030735807493329,0.0478671230375767,0.74513076350143,0.666681528434351,-0.0158397566949031,0.0080614537187423
2020-04-21 18:26:33.6730,-0.0484161376953125,-0.985397338867188,-0.12017822265625,-0.0178895182907581,0.0079340897500515,0.0396113246679306,0.74521045815336,0.666592036431458,-0.0157862127333145,0.00819911657192926
2020-04-21 18:26:33.6830,-0.0484161376953125,-0.985397338867188,-0.12017822265625,-0.0116073871031404,-0.00848589651286602,0.0191225614398718,0.745264230115952,0.666531596286607,-0.015779087784713,0.0082388621779173
2020-04-21 18:26:33.6939,-0.04656982421875,-0.998428344726562,-0.123077392578125,-0.00496280053630471,-0.0223593674600124,-0.00422510504722595,0.745276994173434,0.666518022254659,-0.0157857402631357,0.00816935553723451
2020-04-21 18:26:33.7040,-0.0389862060546875,-0.99609375,-0.117660522460938,-0.00492285331711173,-0.0154069196432829,-0.0179981756955385,0.745271688621831,0.666526295176934,-0.0157578638734167,0.00803104617232832
2020-04-21 18:26:33.7140,-0.0319061279296875,-0.9959716796875,-0.110397338867188,-0.00104422541335225,-0.00462910672649741,-0.0176493003964424,0.745264877161432,0.666537237965831,-0.0156787903535018,0.00790878040460401
2020-04-21 18:26:33.7240,-0.0319061279296875,-0.9959716796875,-0.110397338867188,-0.00957566220313311,0.015587748028338,-0.00259631569497287,0.745269453898219,0.666534405954716,-0.0155948229589876,0.00788214829352866
2020-04-21 18:26:33.7340,-0.023101806640625,-0.988555908203125,-0.0886383056640625,-0.0323885641992092,0.033854104578495,0.0165171921253204,0.745342455360905,0.666453049862504,-0.0155172639455528,0.00801068568781369
2020-04-21 18:26:33.7440,-0.025848388671875,-0.9808349609375,-0.0749053955078125,-0.0694182217121124,0.0616857334971428,0.0270736962556839,0.745523284440527,0.666249967789979,-0.0154121719501982,0.00827512734877492
2020-04-21 18:26:33.7540,-0.03094482421875,-0.977615356445312,-0.0662384033203125,-0.123725406825542,0.0863740369677544,0.012767992913723,0.745857908166761,0.665875381582109,-0.015219741076512,0.00862070238133305
2020-04-21 18:26:33.7640,-0.037384033203125,-0.97540283203125,-0.06622314453125,-0.187047377228737,0.103316001594067,-0.0248278509825468,0.7464173637579,0.665250544288826,-0.0149024603800748,0.00898604911786505
2020-04-21 18:26:33.7740,-0.0498046875,-0.981826782226562,-0.0722503662109375,-0.221025854349136,0.10691899061203,-0.0836259201169014,0.747134738683116,0.664453915075046,-0.014370929866611,0.00917351454592355
2020-04-21 18:26:33.7840,-0.060333251953125,-0.989227294921875,-0.07159423828125,-0.243132218718529,0.0978511944413185,-0.151862770318985,0.747918152425015,0.663589121224897,-0.0136211671841528,0.0090763026427503
2020-04-21 18:26:33.7940,-0.0593719482421875,-0.989700317382812,-0.07244873046875,-0.289754331111908,0.130840301513672,-0.23088301718235,0.748816190926811,0.662600871063123,-0.0125645257029788,0.00874817501607073
2020-04-21 18:26:33.8040,-0.036102294921875,-0.985610961914062,-0.0768890380859375,-0.357868134975433,0.209528729319572,-0.296492904424667,0.749866021133069,0.661444690634337,-0.0110861539756222,0.00830474392955407
2020-04-21 18:26:33.8139,-0.009002685546875,-0.996429443359375,-0.0853729248046875,-0.413464814424515,0.266170978546143,-0.367887198925018,0.751075697364578,0.660106633294297,-0.00908700285201492,0.00787120628293165
2020-04-21 18:26:33.8240,-0.009002685546875,-0.996429443359375,-0.0853729248046875,-0.405932873487473,0.289786815643311,-0.439523309469223,0.75231053218208,0.65873380030005,-0.00674654907777254,0.00728886724468388
2020-04-21 18:26:33.8340,-0.011260986328125,-1.05213928222656,-0.15069580078125,-0.327706217765808,0.291532516479492,-0.492091178894043,0.753345629884345,0.657578980444766,-0.00416427645370228,0.00655020709591631
2020-04-21 18:26:33.8440,-0.033111572265625,-1.08818054199219,-0.185806274414062,-0.213209211826324,0.249720886349678,-0.529368221759796,0.754266334289178,0.656543533944118,-0.00145678468115087,0.00554641979361598
2020-04-21 18:26:33.8540,-0.0411834716796875,-1.12237548828125,-0.207626342773438,-0.113684222102165,0.178970545530319,-0.557478964328766,0.754813068444394,0.655925383808474,0.00114164287277504,0.00422128331375583
2020-04-21 18:26:33.8640,-0.03460693359375,-1.14649963378906,-0.22052001953125,-0.0230853445827961,0.102507196366787,-0.535351812839508,0.755050342101308,0.655652353452613,0.00347285359852349,0.00262899080107057
2020-04-21 18:26:33.8740,-0.009765625,-1.15858459472656,-0.221145629882812,0.0449517630040646,0.0533473789691925,-0.452043890953064,0.755022467370043,0.655676011071935,0.00538516666918929,0.00102090704462317
2020-04-21 18:26:33.8840,0.0233154296875,-1.15715026855469,-0.218353271484375,0.114073306322098,0.0509153790771961,-0.327013820409775,0.754771971502906,0.655951410295101,0.0068518231803389,-0.000266241601292151
2020-04-21 18:26:33.8940,0.0485992431640625,-1.16316223144531,-0.204360961914062,0.188350200653076,0.0586412101984024,-0.192516982555389,0.754284417057468,0.65649923455557,0.00791808783741522,-0.00103783294696341
2020-04-21 18:26:33.9040,0.056915283203125,-1.17073059082031,-0.203414916992188,0.251151263713837,0.0722068175673485,-0.0991316437721252,0.753567495783652,0.657312651044708,0.0086198914735365,-0.00134370603810503
2020-04-21 18:26:33.9140,0.056915283203125,-1.17073059082031,-0.203414916992188,0.299848765134811,0.0955387726426125,-0.0765230059623718,0.752664609064992,0.658338186492111,0.00921600261470185,-0.00137250250498617
2020-04-21 18:26:33.9240,0.036956787109375,-1.14837646484375,-0.198226928710938,0.34011709690094,0.106488361954689,-0.0796926990151405,0.751615725547178,0.659526176290335,0.00986345349899376,-0.00131764301429912
2020-04-21 18:26:33.9340,0.0186920166015625,-1.14498901367188,-0.193954467773438,0.374426603317261,0.0936465933918953,-0.0655696913599968,0.750439621185713,0.660854591018176,0.0104882539634579,-0.00125738364872265
2020-04-21 18:26:33.9440,-0.0003662109375,-1.16314697265625,-0.188705444335938,0.413516223430634,0.0539545789361,-0.0313794948160648,0.749147077323427,0.662312725611444,0.010913569636636,-0.00118491716711999
2020-04-21 18:26:33.9540,0.0093994140625,-1.16290283203125,-0.177871704101562,0.493311703205109,0.0537953227758408,-0.110910803079605,0.747657075278231,0.663987045584783,0.01133846424262,-0.00124109250759064
2020-04-21 18:26:33.9640,0.01434326171875,-1.10052490234375,-0.158477783203125,0.554819524288177,0.0525404401123524,-0.166414812207222,0.74589859939542,0.665949556240187,0.0119921961252172,-0.00162947707648217
2020-04-21 18:26:33.9740,0.0279541015625,-1.06950378417969,-0.15380859375,0.557552456855774,0.0692254081368446,-0.188635692000389,0.74404683155707,0.668001310596015,0.012814262097737,-0.00208714608530234
2020-04-21 18:26:33.9830,0.0279541015625,-1.06950378417969,-0.15380859375,0.544872879981995,0.0711354315280914,-0.199920833110809,0.742197343868607,0.67003590322339,0.0137205776012449,-0.00259555317580587
2020-04-21 18:26:33.9940,0.039398193359375,-0.9898681640625,-0.121490478515625,0.517362713813782,0.0871021449565887,-0.174329996109009,0.740420928838692,0.671977178784201,0.0146374084134647,-0.00304394576363509
2020-04-21 18:26:34.0040,0.046173095703125,-0.97052001953125,-0.112945556640625,0.520570516586304,0.0968362614512444,-0.143388852477074,0.738680539225792,0.673869131628639,0.0155037059798174,-0.00333009129738408
2020-04-21 18:26:34.0140,0.046539306640625,-0.950042724609375,-0.097686767578125,0.517821550369263,0.105467036366463,-0.104821488261223,0.73692411644881,0.675770067485217,0.016299167693945,-0.00346404671598582
2020-04-21 18:26:34.0240,0.0413360595703125,-0.931991577148438,-0.0894775390625,0.509488821029663,0.0983606576919556,-0.0640527531504631,0.735192682621836,0.677637444314701,0.0169506428166673,-0.00344807048219763
2020-04-21 18:26:34.0340,0.0361175537109375,-0.909378051757812,-0.077880859375,0.505690097808838,0.0919288545846939,-0.0352139137685299,0.733470612105472,0.679489006104267,0.0174492979274187,-0.00332772638580682
2020-04-21 18:26:34.0440,0.033843994140625,-0.8843994140625,-0.067596435546875,0.486203193664551,0.0792503505945206,-0.0129339080303907,0.731784828535303,0.681295189659037,0.0178307786885311,-0.00314525108298392
2020-04-21 18:26:34.0540,0.032867431640625,-0.855926513671875,-0.0577545166015625,0.453534185886383,0.0711708515882492,-0.00600889045745134,0.730185983869709,0.683001602534347,0.018128312852862,-0.00293328635614797
2020-04-21 18:26:34.0640,0.0337677001953125,-0.832260131835938,-0.0479278564453125,0.415674448013306,0.0544318147003651,-0.0176658127456903,0.728706746301727,0.684573303869006,0.0183895068218884,-0.00277408779093611
2020-04-21 18:26:34.0730,0.0401611328125,-0.806686401367188,-0.0348663330078125,0.360384821891785,0.0562446303665638,-0.0368067510426044,0.727371092472871,0.685984903399484,0.0186743624593452,-0.00269709650543313
2020-04-21 18:26:34.0840,0.0513458251953125,-0.78192138671875,-0.0229339599609375,0.29119935631752,0.0607965067028999,-0.0635805726051331,0.726258771146011,0.687151913371304,0.0190586704350611,-0.00268558464593681
2020-04-21 18:26:34.0940,0.0587921142578125,-0.765213012695312,-0.0080108642578125,0.222991541028023,0.0750553384423256,-0.0880046933889389,0.725375527963215,0.688069758032934,0.0195674311655399,-0.0027326086746665
2020-04-21 18:26:34.1040,0.0638885498046875,-0.755325317382812,0.00396728515625,0.161089017987251,0.0924481749534607,-0.0896902084350586,0.724717611168607,0.688744936416826,0.0201767374926469,-0.00277414606728855
2020-04-21 18:26:34.1140,0.0606842041015625,-0.750076293945312,0.01324462890625,0.114135891199112,0.107794642448425,-0.0659481212496758,0.724245928830929,0.689222401663227,0.0208086821422201,-0.00270450825517516
2020-04-21 18:26:34.1230,0.04638671875,-0.745559692382812,0.0162506103515625,0.0871628671884537,0.105818837881088,-0.0288100764155388,0.723903066810312,0.689566363588419,0.0213628284759939,-0.00249191283456696
2020-04-21 18:26:34.1340,0.0254058837890625,-0.739471435546875,0.01885986328125,0.085383340716362,0.0818413347005844,-0.00325917662121356,0.723602197896714,0.689870618956446,0.0217607067654619,-0.00220452733293326
2020-04-21 18:26:34.1440,0.0048828125,-0.735809326171875,0.0238800048828125,0.0816887393593788,0.0471981391310692,0.0095471665263176,0.72330729699509,0.690173572647632,0.0219817157964407,-0.00194882095262816
2020-04-21 18:26:34.1540,-0.0110931396484375,-0.717437744140625,0.025604248046875,0.0556795075535774,0.0156599190086126,0.0109229553490877,0.723066486035644,0.690424000368192,0.0220539699140412,-0.00178294662850629
2020-04-21 18:26:34.1640,-0.0217742919921875,-0.69012451171875,0.028778076171875,0.0154362143948674,-0.0138007672503591,-0.00243599340319633,0.722946507478306,0.690550080088656,0.0220424980939303,-0.00174999778543634
2020-04-21 18:26:34.1739,-0.02734375,-0.661819458007812,0.0330963134765625,-0.047184556722641,-0.0420049726963043,-0.00753674563020468,0.723008822598415,0.690487168448258,0.0219623189190242,-0.00183553830243937
2020-04-21 18:26:34.1830,-0.026397705078125,-0.635025024414062,0.030181884765625,-0.120358899235725,-0.0839524269104004,-0.00953171961009502,0.723303170370346,0.690184493085343,0.0217645570628396,-0.00204775305957923
2020-04-21 18:26:34.1940,-0.014739990234375,-0.605636596679688,0.02752685546875,-0.217148035764694,-0.122268117964268,-0.0262936558574438,0.723894464082043,0.689573052991845,0.0214456369716188,-0.00242777959469383
2020-04-21 18:26:34.2039,0.000701904296875,-0.5758056640625,0.017852783203125,-0.331596314907074,-0.13672162592411,-0.0642969608306885,0.724863492529785,0.688562145232597,0.0211246118301659,-0.00297323480943509
2020-04-21 18:26:34.2140,0.01519775390625,-0.547836303710938,0.00921630859375,-0.41403791308403,-0.11353774368763,-0.13617967069149,0.726168945914897,0.68718528664144,0.0210082678557383,-0.00370087747327777
2020-04-21 18:26:34.2240,0.0301055908203125,-0.517044067382812,0.0068817138671875,-0.477349519729614,-0.0593725144863129,-0.20916573703289,0.727713435060542,0.685535417102741,0.0212965402342051,-0.00456132702286465
2020-04-21 18:26:34.2340,0.041259765625,-0.486602783203125,0.011749267578125,-0.526752471923828,0.00480966875329614,-0.219283878803253,0.7294373891583,0.683673608981669,0.0219669191744137,-0.00538016188306482
2020-04-21 18:26:34.2440,0.0355987548828125,-0.449356079101562,0.0069122314453125,-0.547207415103912,0.0665987357497215,-0.141842618584633,0.731287457202088,0.681665116075108,0.0227450001682897,-0.00583004567368268
2020-04-21 18:26:34.2540,0.03009033203125,-0.392333984375,-0.004364013671875,-0.526693344116211,0.100837394595146,0.0178098902106285,0.733105438531923,0.679690974059762,0.0233292355787901,-0.00568705054643298
2020-04-21 18:26:34.2640,0.0193023681640625,-0.327011108398438,-0.0065460205078125,-0.566308677196503,0.102744750678539,0.283587247133255,0.734931144546699,0.677727310286593,0.0232279813906511,-0.00472932844010386
2020-04-21 18:26:34.2740,-0.0201568603515625,-0.24786376953125,-0.025482177734375,-0.789857864379883,0.089113362133503,0.681460857391357,0.737161444859155,0.675353279898142,0.0220064186545588,-0.00258245657938041
2020-04-21 18:26:34.2839,-0.12359619140625,-0.654403686523438,-0.0612945556640625,-2.06620931625366,-0.271456807851791,2.76747727394104,0.741472126062372,0.670760327014541,0.0170647375724745,0.00290941703351008
2020-04-21 18:26:34.2940,-0.46875,-4.18537902832031,-0.462509155273438,-4.89687442779541,-1.29918611049652,7.78158569335938,0.75352071223693,0.657079188255827,-0.00460137000894359,0.0207919211486897
2020-04-21 18:26:34.3050,-0.39739990234375,-4.8433837890625,-0.882415771484375,-1.18067491054535,-1.57482171058655,5.35299730300903,0.762982090076949,0.644146299292001,-0.0333289742314451,0.0426972458937363
2020-04-21 18:26:34.3140,0.1038818359375,-1.629638671875,-0.528106689453125,2.47742033004761,-0.510004937648773,-0.164878964424133,0.759511017075686,0.647039057923185,-0.0457265239668125,0.0489137758555374
2020-04-21 18:26:34.3240,0.230636596679688,-0.990859985351562,-0.456298828125,2.96320772171021,0.691324949264526,-3.29933834075928,0.750566153023268,0.658293959397098,-0.0382160946820916,0.0428840653902292
2020-04-21 18:26:34.3340,0.310089111328125,-1.10148620605469,-0.179473876953125,1.34608912467957,0.975812017917633,-4.28178119659424,0.74403490937601,0.667038108768662,-0.0217656927329967,0.0315985711704162
2020-04-21 18:26:34.3439,0.219406127929688,-0.839309692382812,-0.039276123046875,-0.236686840653419,1.08511960506439,-3.81484293937683,0.743024681843241,0.668958915571045,-0.00401129335267462,0.0198040646181627
2020-04-21 18:26:34.3540,0.1209716796875,-0.575119018554688,-0.021331787109375,-0.409785658121109,0.924327790737152,-2.2657425403595,0.744591134788974,0.667342431207787,0.00998971025024508,0.0117612581157101
2020-04-21 18:26:34.3640,0.0098876953125,-0.452194213867188,0.0263214111328125,-0.107026316225529,0.762986600399017,-0.553215265274048,0.745418432999938,0.666292585798743,0.0178072083545538,0.00940495529814353
2020-04-21 18:26:34.3740,-0.0837554931640625,-0.569686889648438,-0.0133514404296875,-0.239556923508644,0.441735327243805,0.768079876899719,0.745856455656326,0.665709437501204,0.019611377700993,0.0120202430209036
2020-04-21 18:26:34.3840,-0.1190185546875,-0.808517456054688,-0.0565643310546875,-0.407160580158234,0.120969295501709,1.40026450157166,0.746896010954162,0.66450489676046,0.0168509567682819,0.0171940762509792
2020-04-21 18:26:34.3940,-0.118576049804688,-0.966506958007812,-0.138336181640625,-0.24980291724205,-0.0581863410770893,1.42436981201172,0.747881892327293,0.663333725835574,0.0121223551668074,0.0226735926410245
2020-04-21 18:26:34.4040,-0.130661010742188,-1.116455078125,-0.227386474609375,-0.100095175206661,-0.118554875254631,1.14721179008484,0.748292553766607,0.66276628002504,0.00748710382043621,0.0272590409882994
2020-04-21 18:26:34.4140,-0.129669189453125,-1.2113037109375,-0.233749389648438,0.0146540440618992,-0.20152485370636,0.669816195964813,0.748316738894989,0.66264323450675,0.00381585667856428,0.0301900859523521
2020-04-21 18:26:34.4240,-0.084197998046875,-1.17500305175781,-0.183624267578125,0.126079365611076,-0.161095142364502,0.128179535269737,0.748020725537153,0.66294569971687,0.0018151183823873,0.0310595997887775
2020-04-21 18:26:34.4340,-0.0318450927734375,-1.0733642578125,-0.12762451171875,0.152169555425644,-0.045900646597147,-0.264573603868484,0.747564674146721,0.663488773195939,0.00172654430783192,0.0304421558962088
2020-04-21 18:26:34.4440,-0.0192108154296875,-0.98773193359375,-0.0718231201171875,0.118278436362743,0.0381284765899181,-0.395814180374146,0.747158396903501,0.663999573712428,0.00289572883809519,0.0291635183199856
2020-04-21 18:26:34.4540,-0.046661376953125,-0.949600219726562,-0.05084228515625,0.0782490000128746,0.0489955060184002,-0.306492835283279,0.746899176018961,0.664333006448129,0.00428626583844166,0.0280161619596529
2020-04-21 18:26:34.4640,-0.0816497802734375,-0.929641723632812,-0.0560302734375,0.0296335257589817,-0.00124635943211615,-0.157765656709671,0.746754260440054,0.664521111539226,0.00516121085691919,0.0272603876676168
2020-04-21 18:26:34.4740,-0.09600830078125,-0.930389404296875,-0.06695556640625,-0.0233814883977175,-0.0776077061891556,-0.0759602785110474,0.746769447949385,0.664523402484315,0.00537985256563625,0.0267412854293148
2020-04-21 18:26:34.4840,-0.082427978515625,-0.946563720703125,-0.0798492431640625,-0.05878821387887,-0.1409872174263,-0.107435114681721,0.746930906766597,0.664369145674717,0.00524543852077034,0.0260834078870146
2020-04-21 18:26:34.4940,-0.056060791015625,-0.975509643554688,-0.0979766845703125,-0.0677782446146011,-0.159209102392197,-0.175099104642868,0.747178283686015,0.664130507576976,0.00513761411950818,0.0250776038474179
2020-04-21 18:26:34.5040,-0.036376953125,-1.00283813476562,-0.116668701171875,-0.0361939556896687,-0.176171839237213,-0.203746199607849,0.747385683952534,0.663942942195169,0.00514483159278668,0.0238314842153474
2020-04-21 18:26:34.5140,-0.0194244384765625,-1.01933288574219,-0.12872314453125,-0.000392283633118495,-0.175100713968277,-0.180673107504845,0.747482119313851,0.663879464431582,0.00512551131992245,0.0225447808998123
2020-04-21 18:26:34.5240,-0.004730224609375,-1.01506042480469,-0.12713623046875,0.0260214805603027,-0.149910405278206,-0.144571036100388,0.747467765378035,0.663933472897534,0.00505369195478306,0.0214182978925005
2020-04-21 18:26:34.5340,0.01165771484375,-0.995208740234375,-0.119476318359375,0.0317962802946568,-0.101399324834347,-0.112752914428711,0.747391900767104,0.664046620949075,0.00502302855285324,0.0205475316767612
2020-04-21 18:26:34.5440,0.0241241455078125,-0.976531982421875,-0.113784790039062,0.0117088537663221,-0.056050218641758,-0.0828016698360443,0.747334600101605,0.664129216209468,0.00505997772297184,0.0199443298562596
2020-04-21 18:26:34.5540,0.025115966796875,-0.971878051757812,-0.109481811523438,-0.00948591344058514,-0.0336644873023033,-0.0426417365670204,0.747344940119727,0.664127825717994,0.00510833576015665,0.0195876616851842
2020-04-21 18:26:34.5639,0.023040771484375,-0.974090576171875,-0.11431884765625,-0.0352687761187553,-0.00185782113112509,0.00629438133910298,0.747436480173098,0.664027938084671,0.00510156215035992,0.0194828030091869
2020-04-21 18:26:34.5729,0.0223846435546875,-0.97882080078125,-0.117965698242188,-0.0451120845973492,0.021412082016468,0.0395556651055813,0.747486652139404,0.66396431690072,0.00489248706441083,0.0197776218568014
2020-04-21 18:26:34.5840,0.0187225341796875,-0.986251831054688,-0.1217041015625,-0.0417988449335098,0.045369878411293,0.0586382783949375,0.747612761621951,0.663811431655809,0.00477591144691762,0.0201676109868203
2020-04-21 18:26:34.5940,0.0077972412109375,-0.997451782226562,-0.124984741210938,-0.0278326962143183,0.0602476261556149,0.0637161284685135,0.747733084222808,0.663662746563529,0.00476379495730592,0.0205985397542274
2020-04-21 18:26:34.6040,-0.0084228515625,-1.00608825683594,-0.1248779296875,-0.0200360268354416,0.0608833245933056,0.0619794800877571,0.747817067082167,0.663553448625702,0.00478587149741131,0.0210606370172811
2020-04-21 18:26:34.6140,-0.0236053466796875,-1.0029296875,-0.124420166015625,-0.0159137193113565,0.0516884960234165,0.0474005378782749,0.747884537430308,0.663465816690614,0.00490067003314264,0.0213965461917933
2020-04-21 18:26:34.6240,-0.0334625244140625,-0.99066162109375,-0.124221801757812,-0.0111280186101794,0.0426324158906937,0.0243354327976704,0.747924454070068,0.663413516325008,0.00511105976405118,0.0215730023262369
2020-04-21 18:26:34.6340,-0.0410919189453125,-0.98370361328125,-0.119384765625,-0.0241327658295631,0.026608707383275,0.00433615874499083,0.747965519749433,0.663363799440171,0.0053645505698769,0.0216164857330029
2020-04-21 18:26:34.6440,-0.0428466796875,-0.981597900390625,-0.114669799804688,-0.0462508536875248,0.00235743029043078,-0.0138521660119295,0.748072386160075,0.663244318789695,0.00558897425102716,0.021527703657998
2020-04-21 18:26:34.6540,-0.0392303466796875,-0.978652954101562,-0.110809326171875,-0.0707926824688911,-0.0129805132746696,-0.0293853189796209,0.74827488785818,0.663020888090615,0.0057916340791973,0.0213178594388345
2020-04-21 18:26:34.6640,-0.034576416015625,-0.97857666015625,-0.107025146484375,-0.0998983681201935,-0.0283240489661694,-0.043767187744379,0.74857344208959,0.662691837942166,0.00597164588312473,0.0210159265421423
2020-04-21 18:26:34.6740,-0.0337982177734375,-0.982833862304688,-0.105941772460938,-0.12522129714489,-0.0438777096569538,-0.0507063195109367,0.748971389969841,0.662252369879032,0.00608244616883912,0.0206557363667587
2020-04-21 18:26:34.6830,-0.033203125,-0.990524291992188,-0.110275268554688,-0.130660533905029,-0.062025286257267,-0.0597136653959751,0.749405666860987,0.661772589367126,0.00607603563669892,0.0202797492565851
2020-04-21 18:26:34.6939,-0.033660888671875,-0.998886108398438,-0.12164306640625,-0.130261063575745,-0.0802120119333267,-0.090654268860817,0.749854497591581,0.661278862799808,0.00604131371782061,0.0197990046323901
2020-04-21 18:26:34.7040,-0.0364990234375,-1.01252746582031,-0.1348876953125,-0.111431986093521,-0.0976876765489578,-0.142757952213287,0.75027633168221,0.660820124179354,0.00606315187463925,0.0191161655782273
2020-04-21 18:26:34.7140,-0.0391845703125,-1.02888488769531,-0.147491455078125,-0.067693829536438,-0.10359749943018,-0.208966270089149,0.750584454399352,0.660494323715764,0.00617883367550907,0.0182221614440586
2020-04-21 18:26:34.7240,-0.038360595703125,-1.03614807128906,-0.14581298828125,-0.0299744103103876,-0.108813300728798,-0.27229517698288,0.750736783635353,0.660349037640509,0.0064728458605112,0.0170743213793339
2020-04-21 18:26:34.7340,-0.0283050537109375,-1.03472900390625,-0.14117431640625,-0.0161749757826328,-0.0964146852493286,-0.316509783267975,0.750795013686435,0.660311216992676,0.00695962587894757,0.0157323788685096
2020-04-21 18:26:34.7440,-0.0178070068359375,-1.02702331542969,-0.134521484375,-0.0179558303207159,-0.0759818479418755,-0.345496952533722,0.750825446315509,0.660301562580724,0.00763722453742918,0.0143062370991362
2020-04-21 18:26:34.7540,-0.0056304931640625,-1.0159912109375,-0.124618530273438,-0.0377013050019741,-0.042113896459341,-0.35302808880806,0.750878422148769,0.660259626356827,0.0084886949310095,0.0129136754212618
2020-04-21 18:26:34.7640,0.0026397705078125,-1.00833129882812,-0.119873046875,-0.0677849054336548,-0.0226869359612465,-0.338450223207474,0.7510115307791,0.66011979346294,0.0094048348978778,0.011622736159037
2020-04-21 18:26:34.7740,0.0070953369140625,-1.00689697265625,-0.1251220703125,-0.0946119949221611,-0.0181859284639359,-0.315025866031647,0.751266514641199,0.65983602070459,0.0102838650646905,0.0104542756290061
2020-04-21 18:26:34.7840,0.0112457275390625,-1.00840759277344,-0.132247924804688,-0.103273920714855,-0.016649017110467,-0.277712851762772,0.751616100319081,0.659440586031992,0.0110626820887597,0.00943230088166994
2020-04-21 18:26:34.7940,0.0157928466796875,-1.0130615234375,-0.133743286132812,-0.0909397602081299,-0.0243860334157944,-0.215458780527115,0.751990202153462,0.659015210904539,0.0116545537420379,0.00859412815334934
2020-04-21 18:26:34.8040,0.019134521484375,-1.01158142089844,-0.133880615234375,-0.0777139663696289,-0.0393420793116093,-0.138428717851639,0.752318316282582,0.658642741295244,0.0119558052124385,0.00799681477527929
2020-04-21 18:26:34.8139,0.0259246826171875,-1.00071716308594,-0.139053344726562,-0.0658285468816757,-0.0565820522606373,-0.0647275969386101,0.752585913679466,0.658341308771478,0.0119716855639055,0.00760542181999691
2020-04-21 18:26:34.8240,0.0310516357421875,-0.994430541992188,-0.138763427734375,-0.0599267184734344,-0.0803028270602226,-0.000774180924054235,0.752799074300737,0.658104471956173,0.0117324560774496,0.00737612348268216
2020-04-21 18:26:34.8340,0.030120849609375,-0.996795654296875,-0.14404296875,-0.0599139332771301,-0.0932681635022163,0.0525777228176594,0.752984917005779,0.657901629956736,0.0112576545626956,0.00724053007845179
2020-04-21 18:26:34.8440,0.026519775390625,-1.01115417480469,-0.151901245117188,-0.0340924561023712,-0.0981358885765076,0.0812386646866798,0.753117928367279,0.657759216307046,0.0106747242227968,0.00722838831869275
2020-04-21 18:26:34.8540,0.0259552001953125,-1.03700256347656,-0.157135009765625,-0.000150734922499396,-0.117571905255318,0.0753658637404442,0.753169114453696,0.657711485775561,0.00999674936530595,0.00720773987226239
2020-04-21 18:26:34.8640,0.0276947021484375,-1.06076049804688,-0.1673583984375,0.0157723054289818,-0.0826416164636612,0.0126521456986666,0.753149546376891,0.657743305367419,0.00946263997175758,0.00706848508452439
2020-04-21 18:26:34.8740,0.03314208984375,-1.08370971679688,-0.168975830078125,0.0307155679911375,-0.0194615814834833,-0.0745935440063477,0.753079857113836,0.657827180326157,0.00937264484939503,0.00680317294123135
2020-04-21 18:26:34.8840,0.0393218994140625,-1.09834289550781,-0.161224365234375,0.038599856197834,0.0421977862715721,-0.150300294160843,0.752971466370867,0.657948738839226,0.00979936238293211,0.00643431333291217
2020-04-21 18:26:34.8940,0.0347442626953125,-1.11111450195312,-0.15802001953125,0.0446782559156418,0.0772758796811104,-0.181784182786942,0.752850491656635,0.65807838024906,0.0106302642651143,0.00599834500436878
2020-04-21 18:26:34.9040,0.0235137939453125,-1.12748718261719,-0.161529541015625,0.0660202950239182,0.0889905914664268,-0.162107676267624,0.752686558514639,0.658253373380688,0.0115852877601895,0.0055876803636892
2020-04-21 18:26:34.9130,0.01171875,-1.14517211914062,-0.169998168945312,0.100514620542526,0.0652280077338219,-0.0851047709584236,0.752444884474097,0.658517463108075,0.012368733886608,0.00533488823782792
2020-04-21 18:26:34.9240,-0.0117645263671875,-1.17225646972656,-0.176788330078125,0.165388688445091,-0.00613592332229018,0.104276873171329,0.752022714925072,0.65899624698902,0.0124859911842924,0.00546650850702032
2020-04-21 18:26:34.9340,-0.0175933837890625,-1.19236755371094,-0.1781005859375,0.291302144527435,-0.00820173695683479,0.198741063475609,0.751285099733979,0.659842400754416,0.0119094983659597,0.00607197933338028
2020-04-21 18:26:34.9440,0.000640869140625,-1.15483093261719,-0.175430297851562,0.408507078886032,-0.00618412625044584,0.152724832296371,0.750120880740778,0.661169937693307,0.0113080240122826,0.00671612687831514
2020-04-21 18:26:34.9540,0.011016845703125,-1.13490295410156,-0.15997314453125,0.439025819301605,0.0284617356956005,0.106868125498295,0.74870778819031,0.662770432894635,0.0109326488605481,0.00724419579548752
2020-04-21 18:26:34.9640,0.0089569091796875,-1.12429809570312,-0.15277099609375,0.461166560649872,0.0452689453959465,0.0309824161231518,0.747220877679529,0.664443472106189,0.0108460200516742,0.00762864236575091
2020-04-21 18:26:34.9740,0.0009613037109375,-1.09027099609375,-0.1434326171875,0.478387624025345,0.0562028177082539,-0.0495446510612965,0.745664033907276,0.666184433448131,0.0110992613276064,0.00776244590985511
2020-04-21 18:26:34.9830,-0.006103515625,-1.071044921875,-0.139236450195312,0.48466494679451,0.0605440363287926,-0.105879031121731,0.744070205395936,0.667956760361124,0.011602735391171,0.00765978207025618
2020-04-21 18:26:34.9940,-0.0069122314453125,-1.05368041992188,-0.129425048828125,0.484834849834442,0.062703862786293,-0.142358213663101,0.742456076330172,0.669741412449127,0.0122771238820831,0.00739509298375876
2020-04-21 18:26:35.0040,0.0003204345703125,-1.03416442871094,-0.120437622070312,0.487535566091537,0.0609608218073845,-0.143826678395271,0.740831448025239,0.671527923093152,0.0130085524779674,0.00705632237460133
2020-04-21 18:26:35.0140,0.0099029541015625,-1.01951599121094,-0.120101928710938,0.476815283298492,0.0545652396976948,-0.131107956171036,0.739221776783595,0.673288906557162,0.013702584607225,0.00674182549824552
2020-04-21 18:26:35.0240,0.0203857421875,-1.00637817382812,-0.120330810546875,0.478477090597153,0.0524272546172142,-0.112301237881184,0.737625620372128,0.675026975794872,0.0143258242382275,0.00646505063847099
2020-04-21 18:26:35.0340,0.03192138671875,-0.990921020507812,-0.116592407226562,0.494023829698563,0.0595879629254341,-0.104187123477459,0.735998759633878,0.67678987840367,0.0149105758355105,0.00624187760142439
2020-04-21 18:26:35.0440,0.042022705078125,-0.969680786132812,-0.10919189453125,0.518304646015167,0.0654301419854164,-0.0961172133684158,0.734289085199345,0.678632841667062,0.0154982307860603,0.00606715835460897
2020-04-21 18:26:35.0540,0.0456085205078125,-0.94403076171875,-0.098114013671875,0.552444815635681,0.0685303285717964,-0.0790926888585091,0.732476392468186,0.680576773236072,0.0160638926131852,0.00596167446949665
2020-04-21 18:26:35.0640,0.043212890625,-0.911361694335938,-0.087738037109375,0.576201558113098,0.0679713264107704,-0.0617621690034866,0.730560918651375,0.682620840377078,0.0165720530438683,0.00590757818930218
2020-04-21 18:26:35.0740,0.0370635986328125,-0.871002197265625,-0.07537841796875,0.582575023174286,0.0574537068605423,-0.0410757958889008,0.728584534376961,0.684719390787204,0.0169990594949461,0.00591304684534718
2020-04-21 18:26:35.0840,0.032440185546875,-0.825958251953125,-0.059539794921875,0.571972191333771,0.0409333184361458,-0.0300684198737144,0.726610903108101,0.686805407432795,0.017313933942714,0.00592920710809254
2020-04-21 18:26:35.0940,0.0335235595703125,-0.778121948242188,-0.04486083984375,0.549454092979431,0.0312878824770451,-0.026656910777092,0.724692076206432,0.68882356874154,0.0175601052759593,0.00592693280505571
2020-04-21 18:26:35.1040,0.038604736328125,-0.731689453125,-0.031982421875,0.513279557228088,0.022217420861125,-0.0317395552992821,0.722859678997848,0.690741050917676,0.0177751296505439,0.00589320135232994
2020-04-21 18:26:35.1140,0.0451812744140625,-0.68115234375,-0.0194854736328125,0.445321291685104,0.0257943123579025,-0.0393319576978683,0.721205123872729,0.692463030006215,0.0180047342840733,0.00582674160176942
2020-04-21 18:26:35.1240,0.04595947265625,-0.638076782226562,-0.0016326904296875,0.365342289209366,0.0168636683374643,-0.0352216362953186,0.719805115849738,0.693913135661107,0.0182223475843818,0.00575338179057969
2020-04-21 18:26:35.1340,0.043731689453125,-0.59698486328125,0.0159912109375,0.266986161470413,-0.00136407115496695,-0.0207263175398111,0.718713818391052,0.695040612398846,0.018354840764603,0.00566517347457684
2020-04-21 18:26:35.1440,0.03643798828125,-0.561248779296875,0.027252197265625,0.176529765129089,-0.0235647149384022,-0.00252574193291366,0.717955187141698,0.695824732902245,0.0183611467294998,0.00558199145704245
2020-04-21 18:26:35.1540,0.03033447265625,-0.528793334960938,0.0406646728515625,0.0932151675224304,-0.0441264472901821,0.0162711143493652,0.717493046269061,0.696305793134392,0.0182146006097419,0.00549539149250657
2020-04-21 18:26:35.1640,0.0252838134765625,-0.494186401367188,0.050994873046875,0.00117445399519056,-0.0589637160301208,0.0488618165254593,0.717336471716958,0.69647519064541,0.0179167469803194,0.00544842525394917
2020-04-21 18:26:35.1739,0.0173797607421875,-0.458877563476562,0.0594940185546875,-0.0725093558430672,-0.0840424373745918,0.0950556769967079,0.717476639882536,0.696343213453079,0.0174170508127838,0.00548148170584834
2020-04-21 18:26:35.1840,0.0071868896484375,-0.418991088867188,0.068023681640625,-0.141390949487686,-0.106684900820255,0.152734681963921,0.717865751900418,0.69595999835191,0.0166387179887563,0.00562103248059079
2020-04-21 18:26:35.1940,0.0001373291015625,-0.36358642578125,0.0718841552734375,-0.236151546239853,-0.0531191453337669,0.195479482412338,0.7185270148428,0.695295137400047,0.0157316513301585,0.00600965850700768
2020-04-21 18:26:35.2039,-0.002685546875,-0.3046875,0.0705718994140625,-0.361222118139267,-0.0178807303309441,0.205441311001778,0.719551108760066,0.694247589475328,0.0149018493023735,0.00666492889874307
2020-04-21 18:26:35.2140,-0.0045013427734375,-0.256027221679688,0.0724029541015625,-0.538648545742035,0.0200900882482529,0.189623460173607,0.721101720188035,0.692643807525212,0.0141958546107638,0.00743927084490556
2020-04-21 18:26:35.2240,-0.0004730224609375,-0.217239379882812,0.0714874267578125,-0.733765304088593,0.068918876349926,0.145371839404106,0.723293219527019,0.690354590688104,0.0137507406405464,0.00826890766281585
2020-04-21 18:26:35.2330,0.008270263671875,-0.182846069335938,0.064239501953125,-0.941273510456085,0.140035673975945,0.111949436366558,0.726163212007825,0.687325822227034,0.0136482314648757,0.00916129926871892
2020-04-21 18:26:35.2440,0.0038299560546875,-0.157196044921875,0.0377655029296875,-1.14235019683838,0.242852851748466,0.180202528834343,0.729721414860688,0.683524780323982,0.0138232667104229,0.0104617720402229
2020-04-21 18:26:35.2540,-0.0027618408203125,-0.141006469726562,-0.00311279296875,-1.33080983161926,0.303873598575592,0.342901170253754,0.733881467427365,0.679022377725871,0.0138848753285002,0.012402118821979
2020-04-21 18:26:35.2640,-0.0688323974609375,-0.298980712890625,-0.0858917236328125,-1.99892318248749,0.313690274953842,1.30278193950653,0.739208910384084,0.673165451947341,0.0126503755186767,0.0160757305446651
2020-04-21 18:26:35.2740,-0.33184814453125,-3.2744140625,-0.305633544921875,-5.42421102523804,-0.879075109958649,7.04621458053589,0.750830452616849,0.659811489498357,-0.00187629564350433,0.0299818155520314
2020-04-21 18:26:35.2859,-0.667816162109375,-6.56999206542969,-0.844818115234375,-2.47405910491943,-0.919479548931122,7.16008520126343,0.763156479161275,0.642982386997973,-0.0314580087370748,0.0563580696160946
2020-04-21 18:26:35.2940,0.08538818359375,-3.2550048828125,-0.8367919921875,2.09482836723328,-0.48350515961647,1.22129797935486,0.76207910758025,0.641878489432153,-0.0482730019009131,0.0699796819188342
2020-04-21 18:26:35.3040,0.0107574462890625,-1.07997131347656,-0.725662231445312,4.23762464523315,0.867789149284363,-3.31682467460632,0.751667725388132,0.654786093325112,-0.0422341785345848,0.066836193498567
2020-04-21 18:26:35.3140,0.0927581787109375,-0.872726440429688,-0.4796142578125,3.72531938552856,1.33636522293091,-5.09300374984741,0.739556214690134,0.670461771794691,-0.0223047713701714,0.0551372383172134
2020-04-21 18:26:35.3240,0.0729827880859375,-0.689239501953125,-0.102279663085938,1.40861785411835,1.33892846107483,-4.83605432510376,0.731959554229643,0.680093845880985,0.000453646813740387,0.0413202852279845
2020-04-21 18:26:35.3340,-0.051788330078125,-0.327560424804688,0.138656616210938,-0.672437250614166,0.6273592710495,-3.23845386505127,0.731666467632032,0.680767998628374,0.0181842250270572,0.0298068137604248
2020-04-21 18:26:35.3439,-0.0090484619140625,-0.0817413330078125,0.198150634765625,-1.19567918777466,0.136723220348358,-1.20947062969208,0.735395998090329,0.676715909242278,0.0268340878676825,0.0229833831155336
2020-04-21 18:26:35.3540,-0.0054779052734375,-0.148239135742188,0.178573608398438,-0.907666802406311,0.0947376936674118,0.459989160299301,0.739001320489958,0.67274421876558,0.028227788391233,0.0222588497934749
2020-04-21 18:26:35.3640,-0.0283355712890625,-0.505416870117188,0.0606689453125,-0.772394180297852,-0.0492783337831497,1.51706540584564,0.741628222581902,0.669834368772055,0.0248451664468459,0.0263099902314646
2020-04-21 18:26:35.3740,-0.0589141845703125,-1.00166320800781,-0.0242767333984375,-0.805755078792572,-0.228668332099915,1.99470126628876,0.744044296228411,0.667087954408738,0.0182095750844842,0.032560063083128
2020-04-21 18:26:35.3840,-0.110000610351562,-1.35055541992188,-0.15863037109375,-0.583376348018646,-0.260298699140549,2.05698227882385,0.74608898028436,0.664596732336238,0.0103405088859911,0.0394397102197551
2020-04-21 18:26:35.3940,-0.1617431640625,-1.41928100585938,-0.282394409179688,-0.094496414065361,-0.2354756295681,1.65134656429291,0.746857839067316,0.663406812924014,0.00307341078830509,0.0456653362609847
2020-04-21 18:26:35.4040,-0.167892456054688,-1.30203247070312,-0.278961181640625,0.338225185871124,-0.198901116847992,0.854603350162506,0.7461073770541,0.663966584768709,-0.00191415838197708,0.0496839230910463
2020-04-21 18:26:35.4140,-0.121170043945312,-1.1661376953125,-0.193435668945312,0.406885743141174,-0.0969696864485741,0.0458963848650455,0.744693941668448,0.665453761573824,-0.00381111876937225,0.0508694389912543
2020-04-21 18:26:35.4240,-0.0759429931640625,-1.05313110351562,-0.10443115234375,0.255303144454956,0.000761131406761706,-0.473379552364349,0.743643402863239,0.666707670612454,-0.0031292108088702,0.0498555850854497
2020-04-21 18:26:35.4340,-0.07867431640625,-0.968948364257812,-0.064727783203125,0.141553401947021,0.0660591796040535,-0.626960873603821,0.743153394847895,0.667404014995901,-0.00102651512021321,0.0478942455844883
2020-04-21 18:26:35.4440,-0.113571166992188,-0.917587280273438,-0.0589599609375,0.0943515375256538,0.048256479203701,-0.507556676864624,0.74291303723957,0.667806136445755,0.00116273017419458,0.0459764209504574
2020-04-21 18:26:35.4540,-0.1436767578125,-0.8983154296875,-0.0572357177734375,0.0457768104970455,-0.0305523164570332,-0.322822272777557,0.742774192400537,0.668056793264497,0.00259799329080953,0.0444957358378147
2020-04-21 18:26:35.4640,-0.149826049804688,-0.900375366210938,-0.0684356689453125,-0.0212267246097326,-0.0989769101142883,-0.205450087785721,0.742798720986583,0.668101991017459,0.00322789502826602,0.0433517057667886
2020-04-21 18:26:35.4740,-0.131942749023438,-0.92041015625,-0.084564208984375,-0.0630854889750481,-0.160874366760254,-0.174932405352592,0.742988333560474,0.667960743468253,0.00334253032677079,0.0422564654151818
2020-04-21 18:26:35.4840,-0.093963623046875,-0.957672119140625,-0.104400634765625,-0.0748803690075874,-0.176224559545517,-0.214897125959396,0.74327874250833,0.667715698652056,0.00334105888700713,0.0410035856279188
2020-04-21 18:26:35.4940,-0.0534515380859375,-0.996383666992188,-0.120437622070312,-0.0592380240559578,-0.163190513849258,-0.26929298043251,0.743564607560678,0.66748355229332,0.00350071467200841,0.0395616834552174
2020-04-21 18:26:35.5040,-0.0215911865234375,-1.01922607421875,-0.127426147460938,-0.0370496287941933,-0.130783051252365,-0.303736716508865,0.743793725678255,0.667315776500251,0.0039073402991549,0.0380168484663612
2020-04-21 18:26:35.5140,-0.0004119873046875,-1.0220947265625,-0.129013061523438,-0.00723847188055515,-0.107333116233349,-0.29503670334816,0.74393161369878,0.667241741007133,0.00447172528729494,0.0365269334909739
2020-04-21 18:26:35.5240,0.006195068359375,-1.01016235351562,-0.128753662109375,0.0122931515797973,-0.0862912088632584,-0.251892149448395,0.743982330134416,0.667252338920621,0.00503119912280748,0.0352036317460514
2020-04-21 18:26:35.5340,0.0075225830078125,-0.992889404296875,-0.130599975585938,0.0272808894515038,-0.0710803046822548,-0.192514851689339,0.743959537118022,0.667328848642227,0.00549317180875087,0.0341502557012075
2020-04-21 18:26:35.5440,0.0111083984375,-0.982666015625,-0.128646850585938,0.0180847272276878,-0.0508570559322834,-0.140640735626221,0.743914579708038,0.667416428790144,0.00581850871690887,0.0333549641753032
2020-04-21 18:26:35.5530,0.01611328125,-0.980010986328125,-0.1279296875,-0.00473030656576157,-0.0265698246657848,-0.101990282535553,0.743925462332635,0.667429524413861,0.00607873132824293,0.0327991685763869
2020-04-21 18:26:35.5639,0.0179595947265625,-0.975814819335938,-0.122802734375,-0.0195289608091116,0.000718254537787288,-0.062295064330101,0.743990679411394,0.667371037462346,0.006309369495888,0.0324647372077716
2020-04-21 18:26:35.5740,0.017242431640625,-0.97662353515625,-0.117630004882812,-0.0368781238794327,0.0282617323100567,-0.00826538633555174,0.744092986792265,0.66725823063876,0.00647464168277813,0.0324061671056092
2020-04-21 18:26:35.5840,0.016876220703125,-0.979812622070312,-0.113311767578125,-0.0562749914824963,0.0414182804524899,0.0361596010625362,0.744253071436309,0.667069202986172,0.00655458691158069,0.0326049302319827
2020-04-21 18:26:35.5940,0.0117340087890625,-0.98675537109375,-0.107986450195312,-0.0624556541442871,0.0484311804175377,0.0693500488996506,0.744509204052524,0.666768466275494,0.00662613133960108,0.0328930364237236
2020-04-21 18:26:35.6040,-0.0005035400390625,-0.997894287109375,-0.109130859375,-0.0528592206537724,0.0326583459973335,0.0941416770219803,0.744757028991579,0.666474327145501,0.00663208822385063,0.0332408548232142
2020-04-21 18:26:35.6140,-0.0167236328125,-1.00874328613281,-0.111663818359375,-0.0374829284846783,0.0122073972597718,0.10395435988903,0.74496693041404,0.666223221193934,0.00652501741269621,0.0335904194559215
2020-04-21 18:26:35.6240,-0.0274810791015625,-1.01138305664062,-0.107376098632812,-0.0223425906151533,-0.000191481274669059,0.0973699614405632,0.745126895958974,0.666031138686266,0.00636685409971867,0.0338805901320086
2020-04-21 18:26:35.6340,-0.03314208984375,-1.00657653808594,-0.102218627929688,-0.0220341961830854,0.000836498918943107,0.0739898085594177,0.745263521509488,0.665869808454181,0.00625600462406353,0.0340667594968077
2020-04-21 18:26:35.6440,-0.040069580078125,-0.999237060546875,-0.104827880859375,-0.0321555398404598,0.0155997322872281,0.0441988855600357,0.745409919997071,0.665700394319437,0.00627995233020681,0.0341701385955066
2020-04-21 18:26:35.6540,-0.045135498046875,-0.98992919921875,-0.103134155273438,-0.0488415732979774,0.0267975255846977,0.0173006933182478,0.745581032649232,0.665505241924924,0.0064465064028178,0.0342072986269368
2020-04-21 18:26:35.6640,-0.051788330078125,-0.986862182617188,-0.099212646484375,-0.0757882371544838,0.0415770038962364,-0.0173307862132788,0.745810679911516,0.66524583695893,0.00675818305748526,0.034186738664247
2020-04-21 18:26:35.6740,-0.0605926513671875,-0.98626708984375,-0.09869384765625,-0.10797280818224,0.0409458354115486,-0.0682363137602806,0.746119657349867,0.664902261333751,0.0072148458565284,0.0340350670433991
2020-04-21 18:26:35.6830,-0.0696563720703125,-0.991348266601562,-0.103790283203125,-0.135621204972267,0.0209928993135691,-0.141404002904892,0.746528368917805,0.664455857269036,0.00778581226789488,0.0336628767208319
2020-04-21 18:26:35.6939,-0.0797576904296875,-1.00262451171875,-0.113449096679688,-0.135894984006882,-0.0050352388061583,-0.22782464325428,0.74700693154061,0.663943682019564,0.00846595601845862,0.0329811904770103
2020-04-21 18:26:35.7040,-0.0862274169921875,-1.02937316894531,-0.126068115234375,-0.125004515051842,-0.0327187962830067,-0.322371125221252,0.747491082843131,0.663438994595335,0.0092909326676983,0.0319289851153858
2020-04-21 18:26:35.7140,-0.08319091796875,-1.05093383789062,-0.14178466796875,-0.108557634055614,-0.062519833445549,-0.423608511686325,0.747897983647175,0.663036440368354,0.0103157014766757,0.0304116935272593
2020-04-21 18:26:35.7240,-0.0731048583984375,-1.0675048828125,-0.151641845703125,-0.0900265648961067,-0.0805869847536087,-0.519282341003418,0.748257170335747,0.662696563610154,0.0115535230771364,0.0284778462131705
2020-04-21 18:26:35.7340,-0.0516815185546875,-1.07984924316406,-0.152664184570312,-0.0742446705698967,-0.0803648829460144,-0.578300654888153,0.748558153873311,0.662422204617472,0.0129840973289859,0.0262474058919828
2020-04-21 18:26:35.7440,-0.023712158203125,-1.08277893066406,-0.145858764648438,-0.0754311084747314,-0.0485177338123322,-0.576538681983948,0.748810580621997,0.662190294479354,0.0145245594721202,0.0239951123780562
2020-04-21 18:26:35.7540,-4.57763671875e-05,-1.08969116210938,-0.140975952148438,-0.0900262966752052,-0.00587919447571039,-0.510851562023163,0.749068137222042,0.661931347033076,0.0160465969703853,0.0220527626239278
2020-04-21 18:26:35.7640,0.0173492431640625,-1.10897827148438,-0.145065307617188,-0.095560610294342,0.0259463787078857,-0.406365364789963,0.749436769136553,0.661527651814277,0.0175939719911247,0.0203996838413855
2020-04-21 18:26:35.7740,0.03131103515625,-1.12315368652344,-0.154205322265625,-0.0717602074146271,0.054068561643362,-0.319334328174591,0.749759298277894,0.661160955491705,0.0189259023536601,0.0192092633704445
2020-04-21 18:26:35.7840,0.04351806640625,-1.12797546386719,-0.163070678710938,-0.0163771081715822,0.0989510789513588,-0.275844901800156,0.749938866593904,0.660943563583825,0.0201814125333258,0.0183851221677998
2020-04-21 18:26:35.7940,0.05316162109375,-1.14256286621094,-0.16888427734375,0.0472135841846466,0.145638689398766,-0.263861209154129,0.749909371778805,0.660950268216279,0.0215318732708882,0.0178060522461652
2020-04-21 18:26:35.8040,0.0565643310546875,-1.14732360839844,-0.177444458007812,0.11232440918684,0.182226523756981,-0.276654243469238,0.749653297064102,0.661201738633629,0.0230417370208716,0.0173572285762391
2020-04-21 18:26:35.8139,0.058837890625,-1.14051818847656,-0.179351806640625,0.158118262887001,0.215498194098473,-0.302326828241348,0.749210085599474,0.661652547997976,0.0247592785192126,0.0169449547365323
2020-04-21 18:26:35.8240,0.0529022216796875,-1.14727783203125,-0.18170166015625,0.19668136537075,0.215010836720467,-0.338370054960251,0.748633051564458,0.662244136263015,0.0266507600599824,0.0164619281606724
2020-04-21 18:26:35.8340,0.028839111328125,-1.16497802734375,-0.186813354492188,0.256823539733887,0.170963749289513,-0.29055193066597,0.747894088838915,0.663017175001229,0.0284618016559834,0.0158928719775175
2020-04-21 18:26:35.8440,0.01513671875,-1.18363952636719,-0.182891845703125,0.358912348747253,0.153549343347549,-0.23542183637619,0.746887127801967,0.664097805921191,0.0299241783387752,0.0154358687846553
2020-04-21 18:26:35.8540,0.0269317626953125,-1.16012573242188,-0.171112060546875,0.460193961858749,0.153922721743584,-0.229467272758484,0.745525066315883,0.665571230496531,0.0313234235363918,0.0150384762523415
2020-04-21 18:26:35.8640,0.0292205810546875,-1.11485290527344,-0.146270751953125,0.493985205888748,0.150720536708832,-0.129661858081818,0.743919719274308,0.667312384655427,0.0325358941811055,0.0148002753406103
2020-04-21 18:26:35.8730,0.034393310546875,-1.09272766113281,-0.132156372070312,0.49129781126976,0.125752061605453,-0.00159869564231485,0.742271543340574,0.669103300190298,0.0333131550011932,0.0149654042752264
2020-04-21 18:26:35.8840,0.037933349609375,-1.05349731445312,-0.109054565429688,0.4882852435112,0.109706521034241,0.117217972874641,0.740613980392014,0.67091127350372,0.0335918113754313,0.0155108137127196
2020-04-21 18:26:35.8940,0.035980224609375,-1.02249145507812,-0.100830078125,0.486403733491898,0.103856354951859,0.215132281184196,0.738955052433116,0.672722634795824,0.0334601154427156,0.0164349563886013
2020-04-21 18:26:35.9040,0.031005859375,-0.999984741210938,-0.09326171875,0.481977820396423,0.102617986500263,0.24797597527504,0.737289514314246,0.674536741345547,0.0330851381941138,0.0175991558851818
2020-04-21 18:26:35.9140,0.0265960693359375,-0.979507446289062,-0.08892822265625,0.479877114295959,0.100193180143833,0.223458394408226,0.735643574484798,0.676318551567391,0.0327018215792365,0.018770694990213
2020-04-21 18:26:35.9240,0.017303466796875,-0.968994140625,-0.0832672119140625,0.484696924686432,0.102940499782562,0.160844013094902,0.733988591017349,0.678097266647618,0.0324664222592277,0.0197680714052088
2020-04-21 18:26:35.9340,0.0118255615234375,-0.94952392578125,-0.0827789306640625,0.49884894490242,0.113516174256802,0.07773207873106,0.731434676099306,0.680812080309807,0.0326498733962587,0.0207897010787649
2020-04-21 18:26:35.9440,0.0145263671875,-0.923507690429688,-0.07196044921875,0.507330596446991,0.127972885966301,-0.00323334382846951,0.730568019621141,0.681724905064529,0.0328719162933113,0.0209990390448787
2020-04-21 18:26:35.9540,0.020111083984375,-0.893173217773438,-0.06036376953125,0.49939489364624,0.139364823698997,-0.0650245398283005,0.728840110192576,0.683531265413287,0.0335379122437982,0.0212676143305127
2020-04-21 18:26:35.9640,0.020111083984375,-0.86358642578125,-0.051116943359375,0.477993458509445,0.131931394338608,-0.0987337678670883,0.727156600159484,0.685277331245749,0.0343738967392396,0.0213703848389331
2020-04-21 18:26:35.9740,0.0161895751953125,-0.838027954101562,-0.0440826416015625,0.461895197629929,0.112062089145184,-0.0994946286082268,0.725546287345864,0.686938951672157,0.0352216289156255,0.0213751830569923
2020-04-21 18:26:35.9830,0.0150604248046875,-0.807449340820312,-0.03289794921875,0.438336074352264,0.0837367102503777,-0.0769496411085129,0.723998700794279,0.688534414266883,0.0359316216005025,0.0213344835305416
2020-04-21 18:26:35.9940,0.015380859375,-0.7811279296875,-0.02099609375,0.402126401662827,0.0518677234649658,-0.0365667976438999,0.722553090064317,0.690026598609674,0.0364192386302876,0.0213064381645672
2020-04-21 18:26:36.0040,0.0148773193359375,-0.761749267578125,-0.0081787109375,0.366655230522156,0.0240089297294617,0.00506479991599917,0.721232639101488,0.691393304956183,0.0366541063110272,0.0213366971907519
2020-04-21 18:26:36.0140,0.016265869140625,-0.73980712890625,0.0041961669921875,0.337728500366211,0.00244771130383015,0.0480647310614586,0.719447739311252,0.693249771154207,0.0365610062664605,0.0215173886740775
2020-04-21 18:26:36.0230,0.0219268798828125,-0.707229614257812,0.0147552490234375,0.307426005601883,-0.0112691661342978,0.0382840074598789,0.718908022751002,0.693812057105724,0.0364741231412741,0.0215806065726611
2020-04-21 18:26:36.0340,0.022430419921875,-0.671417236328125,0.028411865234375,0.234588533639908,0.00969124305993319,0.102978847920895,0.717963511631447,0.694790381091996,0.0362949651968348,0.021849434986729
2020-04-21 18:26:36.0440,0.011383056640625,-0.663650512695312,0.0401153564453125,0.1820467710495,-0.0297821294516325,0.133369505405426,0.717236265566164,0.695552212833998,0.0358469249802105,0.0222318813395382
2020-04-21 18:26:36.0540,-0.0004730224609375,-0.623764038085938,0.03741455078125,0.148866176605225,-0.0502647683024406,0.135493919253349,0.716665545740406,0.696159145072183,0.0352576754442567,0.0225795616263893
2020-04-21 18:26:36.0640,-0.007568359375,-0.608978271484375,0.03643798828125,0.110788032412529,-0.068563349545002,0.130120456218719,0.716210294897957,0.696651523210759,0.034597318174935,0.0228581334630162
2020-04-21 18:26:36.0740,-0.0138702392578125,-0.587310791015625,0.04107666015625,0.0492900498211384,-0.0930828079581261,0.110151268541813,0.715880613658766,0.697035890455083,0.0335443244031316,0.0230367685532294
2020-04-21 18:26:36.0840,-0.0123443603515625,-0.55487060546875,0.03826904296875,-0.0312444716691971,-0.100241385400295,0.0699455291032791,0.716006147498719,0.696937648795288,0.032941269688716,0.0229778847380099
2020-04-21 18:26:36.0940,-0.00360107421875,-0.517929077148438,0.0356292724609375,-0.134841710329056,-0.0918590798974037,0.0353963412344456,0.716500852165525,0.696454643708297,0.032486577659206,0.0228490782137389
2020-04-21 18:26:36.1040,0.0058135986328125,-0.47662353515625,0.041290283203125,-0.265935003757477,-0.0597860999405384,0.000423176301410422,0.716910768787258,0.696041960220585,0.0323352832763937,0.0227808837533486
2020-04-21 18:26:36.1140,0.011627197265625,-0.4337158203125,0.045440673828125,-0.415116757154465,0.00114116456825286,-0.0472101233899593,0.718901677058032,0.693987746906195,0.0323840591044214,0.0226419650898946
2020-04-21 18:26:36.1240,0.0166778564453125,-0.395660400390625,0.0487823486328125,-0.568612575531006,0.0757139325141907,-0.115541510283947,0.720884150755758,0.691900561476994,0.0329960752148057,0.0226033899534791
2020-04-21 18:26:36.1340,0.0220184326171875,-0.355850219726562,0.0483551025390625,-0.734224736690521,0.155911296606064,-0.175106838345528,0.723411452668194,0.689203687863574,0.0340656467067822,0.0226644765699804
2020-04-21 18:26:36.1440,0.020782470703125,-0.3209228515625,0.0414886474609375,-0.890537083148956,0.240302354097366,-0.168207377195358,0.726449591317568,0.68592038077276,0.0353702170848324,0.0230904798231302
2020-04-21 18:26:36.1540,0.0220489501953125,-0.292007446289062,0.0217437744140625,-1.03746581077576,0.290990024805069,0.0299131572246552,0.729959364962078,0.68209549502726,0.0361616447821789,0.0244416982700487
2020-04-21 18:26:36.1640,-0.0057830810546875,-0.296432495117188,-0.03363037109375,-1.21147465705872,0.257119953632355,0.41935732960701,0.73400157084929,0.677678124831785,0.0355019114034208,0.0270862954638206
2020-04-21 18:26:36.1739,-0.04962158203125,-0.310394287109375,-0.10394287109375,-1.46988964080811,0.120406307280064,0.832830369472504,0.73628937483565,0.675173347740297,0.0344649270847814,0.0288283854270163
2020-04-21 18:26:36.1840,-0.11212158203125,-0.50714111328125,-0.18743896484375,-2.10814476013184,-0.326103538274765,1.66803503036499,0.746283861962297,0.66414582300043,0.0242116851574813,0.0372091046325499
2020-04-21 18:26:36.1940,-0.472076416015625,-2.99142456054688,-0.464126586914062,-4.98774719238281,-1.48106825351715,6.33294630050659,0.759851206355651,0.647737991400136,-0.00130875629160002,0.0553165965488621
2020-04-21 18:26:36.2050,-0.851089477539062,-5.72506713867188,-1.07122802734375,-2.65204262733459,-1.40723049640656,6.12848949432373,0.76603784117387,0.63816615538853,-0.0262614147780689,0.0723900690713404
2020-04-21 18:26:36.2140,-0.119277954101562,-3.41593933105469,-0.62860107421875,2.15800309181213,-1.30264496803284,0.473795264959335,0.759375612424089,0.645945656087365,-0.0319791541201381,0.0712756784546035
2020-04-21 18:26:36.2240,0.0692901611328125,-1.38679504394531,-0.663177490234375,4.05354881286621,0.301334798336029,-3.53651404380798,0.747815640846864,0.660932181355537,-0.018858277621144,0.0598730683911273
2020-04-21 18:26:36.2340,0.324508666992188,-1.11886596679688,-0.30316162109375,3.29165196418762,0.979032874107361,-4.88707399368286,0.73848543486265,0.672735694698884,0.00155871419507273,0.0454259615615297
2020-04-21 18:26:36.2440,0.319320678710938,-0.68499755859375,0.0478515625,1.07348370552063,1.1628258228302,-4.59450674057007,0.73549657236248,0.676414244188818,0.0210746573240971,0.0326254673558008
2020-04-21 18:26:36.2540,0.194183349609375,-0.165512084960938,0.1053466796875,-0.384252339601517,0.83670848608017,-2.95988750457764,0.7368662259999,0.674725934483719,0.0340711540627993,0.0247433784387875
2020-04-21 18:26:36.2640,0.092803955078125,0.0444793701171875,0.156341552734375,-0.781924843788147,0.553450405597687,-1.02863502502441,0.739490689678144,0.671611997471102,0.039583925908956,0.0228901188693743
2020-04-21 18:26:36.2740,-0.012664794921875,-0.0883941650390625,0.10601806640625,-0.962373733520508,0.308184713125229,0.456761956214905,0.742603668527673,0.66809423271374,0.0391473434455306,0.0256392902600502
2020-04-21 18:26:36.2839,-0.0617523193359375,-0.540267944335938,0.0199737548828125,-1.10413348674774,-0.0894079133868217,1.36938095092773,0.74605071316221,0.664303153282582,0.0342434515860677,0.0306111083178832
2020-04-21 18:26:36.2940,-0.095672607421875,-1.01091003417969,-0.0865478515625,-0.951058506965637,-0.318786233663559,1.85369539260864,0.748888990199444,0.661138580252965,0.0268860748747,0.0365813755479881
2020-04-21 18:26:36.3040,-0.132858276367188,-1.40969848632812,-0.2371826171875,-0.522027254104614,-0.379328668117523,1.92652118206024,0.750269292956851,0.659487251944161,0.0191551403974661,0.0424927425041029
2020-04-21 18:26:36.3140,-0.135238647460938,-1.54904174804688,-0.312698364257812,-0.00390845537185669,-0.375853508710861,1.42105770111084,0.750037627101331,0.659626002518794,0.0131939572991453,0.0465082167371469
2020-04-21 18:26:36.3240,-0.0673980712890625,-1.41226196289062,-0.265914916992188,0.371733337640762,-0.25543549656868,0.488460212945938,0.748795736016462,0.66100715891601,0.0106973404965177,0.047539967308069
2020-04-21 18:26:36.3340,0.00689697265625,-1.16697692871094,-0.169357299804688,0.406226873397827,-0.0603919699788094,-0.32199826836586,0.747562972644035,0.662478559171356,0.0115166543855736,0.046250699904138
2020-04-21 18:26:36.3439,0.0308837890625,-0.976882934570312,-0.0992584228515625,0.27341103553772,0.0948338359594345,-0.660765945911407,0.74680041727381,0.663430963084404,0.0139970400602746,0.0441879717809449
2020-04-21 18:26:36.3540,-0.0128631591796875,-0.880950927734375,-0.0673370361328125,0.136692866683006,0.134617194533348,-0.547881722450256,0.746456371071803,0.663867613861957,0.0162695813737419,0.042637754085671
2020-04-21 18:26:36.3640,-0.0758209228515625,-0.847457885742188,-0.06658935546875,0.0334799289703369,0.0623675025999546,-0.225943922996521,0.746391948387035,0.663954990509091,0.0172719189512386,0.0420060802363214
2020-04-21 18:26:36.3740,-0.10699462890625,-0.86248779296875,-0.0723876953125,-0.0419083014130592,-0.0281741134822369,0.0313704386353493,0.746526597515663,0.663808330347425,0.0170822846074459,0.0420087528455944
2020-04-21 18:26:36.3840,-0.103240966796875,-0.907882690429688,-0.0839996337890625,-0.0827295035123825,-0.124051377177238,0.128492191433907,0.746783572673991,0.663536253956952,0.0162138515139098,0.0420838007804569
2020-04-21 18:26:36.3940,-0.082672119140625,-0.969482421875,-0.102691650390625,-0.0863143801689148,-0.174075394868851,0.0953928306698799,0.74705802089494,0.663262215566078,0.0152525283723974,0.0418916124917988
2020-04-21 18:26:36.4040,-0.05902099609375,-1.01617431640625,-0.126693725585938,-0.0435626581311226,-0.179718360304832,0.0041542649269104,0.74722125869157,0.663127969097177,0.0145646105821565,0.0413468170362684
2020-04-21 18:26:36.4140,-0.03460693359375,-1.04051208496094,-0.137939453125,0.00791171845048666,-0.161575838923454,-0.0806586295366287,0.747235071581575,0.663169136920139,0.0142288882538575,0.0405460525099151
2020-04-21 18:26:36.4240,-0.0174102783203125,-1.04032897949219,-0.141342163085938,0.0439690537750721,-0.124336063861847,-0.13337616622448,0.747131975298916,0.663339351018269,0.0142012328410634,0.0396615917783787
2020-04-21 18:26:36.4340,-0.01483154296875,-1.02011108398438,-0.137298583984375,0.0766420438885689,-0.100074931979179,-0.14734710752964,0.746929612942104,0.663614932066731,0.0143233708993527,0.0388100025032819
2020-04-21 18:26:36.4440,-0.0184173583984375,-0.99603271484375,-0.132186889648438,0.0776623040437698,-0.0812988504767418,-0.124569356441498,0.746710850524906,0.663899679829486,0.014446357405348,0.0380975535749264
2020-04-21 18:26:36.4540,-0.0196685791015625,-0.971176147460938,-0.130508422851562,0.0636705905199051,-0.0618063770234585,-0.0928913280367851,0.746530110380308,0.664131338847615,0.0145380061204527,0.0375633522742828
2020-04-21 18:26:36.4640,-0.014068603515625,-0.9578857421875,-0.131134033203125,0.0448180697858334,-0.0389540567994118,-0.0688752010464668,0.746407826915077,0.664287250272501,0.0146318026365,0.0371983251897051
2020-04-21 18:26:36.4740,-0.008331298828125,-0.9642333984375,-0.13275146484375,0.019726300612092,-0.0170101430267096,-0.0541162304580212,0.74636396518776,0.664346896365749,0.0147491786672207,0.0369661262109466
2020-04-21 18:26:36.4840,-0.001739501953125,-0.974822998046875,-0.133987426757812,-0.00257820612750947,0.00427410705015063,-0.0336610227823257,0.746380304902311,0.664326738110069,0.0147401612335833,0.0370020693039773
2020-04-21 18:26:36.4940,0.00299072265625,-0.986160278320312,-0.129379272460938,-0.00333481025882065,0.0291445702314377,-0.00867125205695629,0.746424196732658,0.66426857527053,0.0148482043503817,0.0371175062152102
2020-04-21 18:26:36.5040,0.0023040771484375,-0.987533569335938,-0.12384033203125,-0.00142345961648971,0.047392550855875,0.00461472570896149,0.746474658454771,0.664197883483989,0.0150211881222251,0.0372977179947914
2020-04-21 18:26:36.5140,-0.0058746337890625,-0.982696533203125,-0.120834350585938,-0.0143717490136623,0.043709397315979,0.0180727429687977,0.746569999648802,0.664075754763886,0.0151571608187383,0.0375085061696475
2020-04-21 18:26:36.5240,-0.0168304443359375,-0.9835205078125,-0.1221923828125,-0.0272768940776587,0.0334849879145622,0.0337547659873962,0.746687345827342,0.663929411912086,0.015185901696009,0.03775092010892
2020-04-21 18:26:36.5340,-0.02410888671875,-0.987167358398438,-0.124862670898438,-0.0229876078665257,0.0119711756706238,0.0424308143556118,0.746789290710483,0.66380431565325,0.0151013973255675,0.0379675334867819
2020-04-21 18:26:36.5440,-0.0236053466796875,-0.992095947265625,-0.12664794921875,-0.0208173971623182,-0.00497984467074275,0.050965178757906,0.746902133456592,0.6636709446069,0.014945028882262,0.0381408761604101
2020-04-21 18:26:36.5540,-0.0183563232421875,-0.992294311523438,-0.127120971679688,-0.0187742207199335,-0.00927259400486946,0.0597655959427357,0.747011693611172,0.663541845677804,0.014760599567927,0.038312835226027
2020-04-21 18:26:36.5639,-0.0099334716796875,-0.98956298828125,-0.125991821289062,-0.0199521370232105,-0.00926540326327085,0.0759695991873741,0.747129058451892,0.663401829413756,0.0145465778211048,0.0385302455347108
2020-04-21 18:26:36.5740,-0.0030059814453125,-0.990951538085938,-0.119842529296875,-0.0240483451634645,-0.00625709677115083,0.103791907429695,0.747244808131126,0.663259502292431,0.0142800180203625,0.0388343974488015
2020-04-21 18:26:36.5840,-0.000701904296875,-0.987503051757812,-0.113937377929688,-0.0357358939945698,0.00269405380822718,0.127278864383698,0.74737658719879,0.66309290101898,0.0139815265909439,0.0392499482739799
2020-04-21 18:26:36.5940,-0.0073394775390625,-0.981399536132812,-0.113021850585938,-0.0629885494709015,0.0279072653502226,0.142174184322357,0.74756881671579,0.662848118895536,0.0137018507048601,0.0398182726655059
2020-04-21 18:26:36.6040,-0.015411376953125,-0.981216430664062,-0.116928100585938,-0.0753751844167709,0.0503587797284126,0.141834363341331,0.747796501432702,0.662554889868476,0.0134613051222847,0.0404994274130802
2020-04-21 18:26:36.6140,-0.0222930908203125,-0.986038208007812,-0.1136474609375,-0.0807028338313103,0.0645267963409424,0.136710971593857,0.74803740428546,0.662241542276919,0.0132419059084517,0.0412411614830517
2020-04-21 18:26:36.6240,-0.03192138671875,-0.988754272460938,-0.113021850585938,-0.0914164632558823,0.0664352178573608,0.12623730301857,0.748317790384538,0.661884028878368,0.0130559138911039,0.041947109819526
2020-04-21 18:26:36.6340,-0.044586181640625,-0.990524291992188,-0.120819091796875,-0.103191368281841,0.0510432086884975,0.110302537679672,0.748641298771384,0.661484828078575,0.0128911156591115,0.0425187856460788
2020-04-21 18:26:36.6440,-0.055938720703125,-0.996505737304688,-0.123321533203125,-0.0894814133644104,0.0265269484370947,0.0791036039590836,0.748940156252778,0.661126377318264,0.0127846582013318,0.0428614988161605
2020-04-21 18:26:36.6540,-0.058380126953125,-0.999404907226562,-0.12030029296875,-0.0895123034715652,0.00376624241471291,0.0476071983575821,0.749232857175869,0.660787976092393,0.0127328570795115,0.0429796548426767
2020-04-21 18:26:36.6640,-0.059539794921875,-0.998336791992188,-0.120620727539062,-0.109174154698849,-0.0304399318993092,0.0192123111337423,0.749571816821625,0.660411937706685,0.0126715200122495,0.0428671965704375
2020-04-21 18:26:36.6740,-0.0635986328125,-0.99725341796875,-0.122955322265625,-0.130545496940613,-0.0628785640001297,-0.013455088250339,0.749974047286558,0.659978958388327,0.0125672803777324,0.0425295937575981
2020-04-21 18:26:36.6830,-0.0688934326171875,-0.999679565429688,-0.130813598632812,-0.131946310400963,-0.116470687091351,-0.0585844852030277,0.750400579089677,0.659538395985726,0.0123876311223661,0.0418882049941147
2020-04-21 18:26:36.6939,-0.076385498046875,-1.01321411132812,-0.137939453125,-0.11211109161377,-0.151681140065193,-0.122934445738792,0.75077735366421,0.659172818903685,0.0122584409545279,0.0409180970830839
2020-04-21 18:26:36.7040,-0.0814971923828125,-1.02656555175781,-0.141860961914062,-0.0948500782251358,-0.163073346018791,-0.197415068745613,0.751106813675556,0.658873897995734,0.0123026404924212,0.0396533230256238
2020-04-21 18:26:36.7140,-0.078521728515625,-1.03245544433594,-0.140106201171875,-0.0914130061864853,-0.157632231712341,-0.280227929353714,0.751461674497971,0.658553159714856,0.0126155695256212,0.0381304995486585
2020-04-21 18:26:36.7240,-0.07196044921875,-1.02981567382812,-0.132827758789062,-0.109162971377373,-0.122937642037868,-0.369430512189865,0.75188210170994,0.65815635453838,0.013274546799016,0.0364321906598413
2020-04-21 18:26:36.7340,-0.0606536865234375,-1.02671813964844,-0.1337890625,-0.144982486963272,-0.101299189031124,-0.453582406044006,0.752400650870743,0.657646308589459,0.0142537178948536,0.0345170232510658
2020-04-21 18:26:36.7440,-0.0533294677734375,-1.04168701171875,-0.145416259765625,-0.157933980226517,-0.101589739322662,-0.526432633399963,0.752962023874241,0.657087264968978,0.015454171631792,0.0323370592040926
2020-04-21 18:26:36.7540,-0.0532379150390625,-1.08177185058594,-0.165206909179688,-0.132431536912918,-0.12074638903141,-0.584027230739594,0.753440326665527,0.656622166588642,0.0167375444168381,0.0299141957183454
2020-04-21 18:26:36.7640,-0.0502777099609375,-1.13591003417969,-0.18896484375,-0.0607405789196491,-0.154671594500542,-0.617921531200409,0.753744203608569,0.656356300740335,0.0181635577041442,0.0271324008608828
2020-04-21 18:26:36.7740,-0.03875732421875,-1.1900634765625,-0.208145141601562,0.03751515224576,-0.180573508143425,-0.600235223770142,0.753722086763219,0.656454862285511,0.0194577857253895,0.0243192163046924
2020-04-21 18:26:36.7840,-0.0094451904296875,-1.22317504882812,-0.2095947265625,0.14240375161171,-0.173668190836906,-0.549997329711914,0.753348214626482,0.656939793190434,0.020632290547424,0.0216998670219158
2020-04-21 18:26:36.7940,0.02777099609375,-1.22770690917969,-0.196273803710938,0.228399619460106,-0.129894614219666,-0.490975052118301,0.752673041562429,0.657747076227669,0.0217757621030251,0.0194394548263874
2020-04-21 18:26:36.8040,0.054046630859375,-1.22488403320312,-0.175994873046875,0.307689100503922,-0.0784894824028015,-0.40298393368721,0.751712260182512,0.658859415190738,0.0228259272638619,0.0176614254906642
2020-04-21 18:26:36.8139,0.06414794921875,-1.21722412109375,-0.161605834960938,0.389405816793442,-0.0417799353599548,-0.27586168050766,0.750469310983994,0.660278382828003,0.02359913802963,0.016472738858619
2020-04-21 18:26:36.8230,0.0593109130859375,-1.19996643066406,-0.163619995117188,0.466021507978439,-0.0334250666201115,-0.114122577011585,0.748967404127699,0.66198558071459,0.0238794887556353,0.0158961786902387
2020-04-21 18:26:36.8340,0.04132080078125,-1.17770385742188,-0.174072265625,0.495323717594147,-0.0564526244997978,0.0554757751524448,0.747337441094784,0.663838045780285,0.0235415821040835,0.0158616526423951
2020-04-21 18:26:36.8440,0.0319671630859375,-1.16116333007812,-0.178634643554688,0.537274360656738,-0.0584752932190895,0.136340528726578,0.745542028196469,0.665869109401953,0.0229406370634767,0.0160978417207686
2020-04-21 18:26:36.8540,0.031036376953125,-1.13592529296875,-0.158111572265625,0.635981798171997,-0.0565138757228851,0.100448839366436,0.743430493664976,0.668239442182539,0.0224316545528463,0.0162471497390094
2020-04-21 18:26:36.8640,0.01898193359375,-1.07829284667969,-0.148666381835938,0.692950785160065,-0.0494727455079556,0.0983329638838768,0.741122316421514,0.670809696812778,0.0219811050781809,0.0163979810799837
2020-04-21 18:26:36.8740,0.0232696533203125,-1.0374755859375,-0.138778686523438,0.715672850608826,-0.0190360099077225,0.0994328483939171,0.738723073408619,0.673455897673918,0.0216275770831659,0.0166620110266982
2020-04-21 18:26:36.8840,0.0334625244140625,-1.00263977050781,-0.103134155273438,0.720669746398926,0.0154575193300843,0.140892133116722,0.736287695434125,0.676115898800111,0.0212686192109325,0.0171862380666667
2020-04-21 18:26:36.8940,0.04461669921875,-0.975784301757812,-0.0705108642578125,0.724324941635132,0.0630295649170876,0.198506161570549,0.733821926409312,0.678779760977825,0.0209064033968452,0.0180648472128241
2020-04-21 18:26:36.9040,0.0473175048828125,-0.943435668945312,-0.0453948974609375,0.722777128219604,0.121994882822037,0.211415842175484,0.731355568745859,0.68141155142441,0.0207114282050737,0.0191928734562134
2020-04-21 18:26:36.9130,0.0399322509765625,-0.906890869140625,-0.032684326171875,0.676192045211792,0.174496173858643,0.187121421098709,0.729020502586142,0.683871892587855,0.0207765256122238,0.0204126754943708
2020-04-21 18:26:36.9240,0.0221099853515625,-0.875823974609375,-0.028533935546875,0.60383129119873,0.199927493929863,0.140529423952103,0.726926606782097,0.68605290810953,0.0210830438587635,0.0215550664200471
2020-04-21 18:26:36.9340,-0.0001068115234375,-0.845016479492188,-0.0247650146484375,0.537634134292603,0.193422451615334,0.0826389566063881,0.72506311045301,0.687977969289193,0.021550290137717,0.0224807612839256
2020-04-21 18:26:36.9440,-0.016357421875,-0.81683349609375,-0.0235443115234375,0.477411836385727,0.157009854912758,0.0335305295884609,0.723414218610342,0.689674755031514,0.0220500568950559,0.0231169975458483
2020-04-21 18:26:36.9540,-0.0248870849609375,-0.794174194335938,-0.0199737548828125,0.403931766748428,0.105441734194756,0.00648186774924397,0.72201626041072,0.691112495029754,0.0224542632797583,0.0234913809051692
2020-04-21 18:26:36.9640,-0.0226898193359375,-0.775985717773438,-0.0092315673828125,0.337421447038651,0.0611142218112946,0.00427650427445769,0.720848655621468,0.692314984898755,0.0226922850068675,0.0237115493910906
2020-04-21 18:26:36.9740,-0.011749267578125,-0.763046264648438,0.000396728515625,0.279929399490356,0.0264771468937397,0.0275261662900448,0.719874349906253,0.693320032784381,0.0227324975869129,0.0239057742057336
2020-04-21 18:26:36.9830,0.0005950927734375,-0.752685546875,0.009521484375,0.236279383301735,0.0170314479619265,0.0606702715158463,0.719048844231854,0.694170366657642,0.0226165814781543,0.024181643977863
2020-04-21 18:26:36.9940,0.0061187744140625,-0.744415283203125,0.0139312744140625,0.21006828546524,0.0051548145711422,0.0946380943059921,0.71830869882793,0.694932999640108,0.0223343524968939,0.0245339743594943
2020-04-21 18:26:37.0040,-0.0012664794921875,-0.734268188476562,0.0204925537109375,0.204965129494667,-0.0144905252382159,0.12061270326376,0.717589568311498,0.695676065718465,0.0218895578965096,0.0249172689533025
2020-04-21 18:26:37.0140,-0.020294189453125,-0.720458984375,0.018951416015625,0.204579502344131,-0.0368046201765537,0.137228429317474,0.716879209545689,0.696413138718747,0.0213075982993829,0.0252769736274675
2020-04-21 18:26:37.0240,-0.0345306396484375,-0.695587158203125,0.018035888671875,0.183504313230515,-0.0723053589463234,0.133566588163376,0.7162362005197,0.697086868367338,0.0206178919848023,0.0255050101945686
2020-04-21 18:26:37.0340,-0.047271728515625,-0.67010498046875,0.0164794921875,0.154779732227325,-0.10192396491766,0.109651394188404,0.715703186600099,0.697653926924848,0.0198932048717564,0.0255383503134778
2020-04-21 18:26:37.0440,-0.0548858642578125,-0.641571044921875,0.018096923828125,0.108111023902893,-0.139480128884315,0.0587357506155968,0.715349333718677,0.698045271595806,0.0192095064623168,0.0252809100401215
2020-04-21 18:26:37.0540,-0.0517120361328125,-0.601364135742188,0.0141143798828125,0.0138692101463675,-0.157126769423485,-0.000921187398489565,0.715332598757299,0.698096516706779,0.0186542821294684,0.0247496318199788
2020-04-21 18:26:37.0640,-0.041412353515625,-0.564453125,0.00860595703125,-0.120425216853619,-0.17574280500412,-0.0701468661427498,0.715796990188065,0.697659447468566,0.0182641436409289,0.0239245742412668
2020-04-21 18:26:37.0740,-0.0227203369140625,-0.53253173828125,0.0057373046875,-0.298151791095734,-0.183375954627991,-0.14935539662838,0.716873925557032,0.696594671375781,0.0181033870630752,0.0228014482909152
2020-04-21 18:26:37.0840,-0.0041351318359375,-0.508987426757812,0.0032958984375,-0.471115052700043,-0.17396380007267,-0.243587091565132,0.718557611185566,0.694897598755464,0.0182815166802802,0.0214026353295985
2020-04-21 18:26:37.0940,0.015411376953125,-0.4937744140625,0.00457763671875,-0.616918325424194,-0.123050823807716,-0.313670307397842,0.720734821252743,0.692667226222903,0.0188561124603577,0.0199468837999443
2020-04-21 18:26:37.1040,0.0317535400390625,-0.473678588867188,0.00408935546875,-0.725647211074829,-0.0469342209398746,-0.330068469047546,0.723278323602811,0.690021056786346,0.019741818076532,0.0186994229000597
2020-04-21 18:26:37.1140,0.0394287109375,-0.450103759765625,0.00299072265625,-0.809828400611877,0.0283453557640314,-0.293897122144699,0.726086806025921,0.687057821676531,0.0207618064460592,0.0178450884355544
2020-04-21 18:26:37.1240,0.0337066650390625,-0.426437377929688,-0.006378173828125,-0.869799077510834,0.0790628641843796,-0.195033133029938,0.729073529998955,0.683869650793907,0.0215919919302069,0.0175463518250791
2020-04-21 18:26:37.1340,0.0122528076171875,-0.39459228515625,-0.030975341796875,-0.905403912067413,0.065916433930397,0.00145009125117213,0.732150721296463,0.680559500034876,0.0217436901074061,0.0179248474989982
2020-04-21 18:26:37.1440,-0.0107421875,-0.34515380859375,-0.0648040771484375,-0.938803136348724,0.0462777502834797,0.232647627592087,0.735357442865986,0.67708432474777,0.0210552125158104,0.0190506280308173
