Timestamp,AccelX,AccelY,AccelZ,GyroX,GyroY,GyroZ,QuatW,QuatX,QuatY,QuatZ
2020-07-31 14:35:17.747,0.04248046875,0.00390625,-0.974609375,0.0024828650057315826,-0.005053880624473095,-0.0043931505642831326,0.9997169332141008,-0.0011539571672669572,0.023762871378478597,-3.3881317890172014e-21
2020-07-31 14:35:17.757,0.05133056640625,0.002410888671875,-0.970733642578125,0.002228533150628209,-0.010960505343973637,-0.005540706682950258,0.9997172311362078,-0.0011455230112033805,0.023753373527642545,-3.7049848735503323e-06
2020-07-31 14:35:17.767,0.05712890625,0.0003509521484375,-0.96783447265625,0.0012040151050314307,-0.010146377608180046,-0.002703641075640917,0.9997174098889607,-0.001128735639895854,0.02374641424097851,-5.926196175653156e-06
2020-07-31 14:35:17.777,0.056060791015625,-0.001495361328125,-0.9691314697265625,0.0014682007022202015,-0.005864014383405447,-0.005795038305222988,0.9997180059383008,-0.001120169078510031,0.02372092744070961,-5.518052148143839e-06
2020-07-31 14:35:17.787,0.050872802734375,-0.002593994140625,-0.9717864990234375,-0.001782453735359013,-0.012132029980421066,-0.003802461316809058,0.9997183038459672,-0.001117697113362273,0.023707771512699396,-9.729641990280487e-06
2020-07-31 14:35:17.798,0.0413970947265625,-0.00244140625,-0.974945068359375,0.0006761765689589083,-0.000702009245287627,-0.004777178168296814,0.999718542295563,-0.0011263371546859418,0.02369727387341332,-8.441792061257144e-06
2020-07-31 14:35:17.807,0.0349273681640625,-0.0015106201171875,-0.9776611328125,-0.00159470085054636,-0.008489624597132206,-0.005525260232388973,0.9997183634128184,-0.0011301975092871475,0.023705184629567673,-1.1134301945120402e-05
2020-07-31 14:35:17.818,0.0337066650390625,-0.0004119873046875,-0.977752685546875,0.0006767092272639275,-0.0015052186790853739,-0.004983573220670223,0.9997182439696068,-0.0011367263266875186,0.023708973422775684,-2.0017268975619116e-05
2020-07-31 14:35:17.827,0.038665771484375,0.00286865234375,-0.976959228515625,-0.0005203816690482199,-0.007018494885414839,-0.004264520015567541,0.9997180054445487,-0.001139157823646406,0.02372035797430391,-2.4171864087572053e-05
2020-07-31 14:35:17.838,0.047943115234375,0.0046844482421875,-0.9726715087890625,0.0014956312952563167,-0.005352154839783907,-0.004231230355799198,0.9996759250563608,-0.0011978649978152962,0.025427388119227262,-2.535708979697017e-05
2020-07-31 14:35:17.848,0.05523681640625,0.0062255859375,-0.970611572265625,5.193164179218002e-05,-0.00920255295932293,-0.004518851637840271,0.9996388516827724,-0.0007627122157013676,0.0268631202378938,-1.4658651802886236e-05
2020-07-31 14:35:17.856,0.057281494140625,0.0071258544921875,-0.9700164794921875,0.002272208919748664,-0.008058725856244564,-0.004344148561358452,0.9996257985933972,-0.0003261723806697494,0.027352056755675397,-7.674557087472816e-06
2020-07-31 14:35:17.867,0.053619384765625,0.00640869140625,-0.9718170166015625,1.7843178284238093e-05,-0.008674448356032372,-0.004216582980006933,0.9996352758419971,4.472465708502741e-05,0.02700526711388126,6.931769243029584e-07
2020-07-31 14:35:17.877,0.0460662841796875,0.0023651123046875,-0.97393798828125,0.0010034791193902493,-0.009177519008517265,-0.0049614692106842995,0.9996640050954592,0.00023346553030889936,0.02591918353652076,6.3331857546301616e-06
2020-07-31 14:35:17.887,0.03912353515625,-0.0013275146484375,-0.9768524169921875,0.0012298477813601494,-0.003748931922018528,-0.0067657604813575745,0.9996946414225464,0.00032685355738099194,0.024709039141807394,2.9635641541797913e-06
2020-07-31 14:35:17.897,0.0364837646484375,-0.00201416015625,-0.9783935546875,0.00019041601626668125,-0.004062119405716658,-0.0055817193351686,0.9997174099273042,0.00028491757323235485,0.023771841036027086,-3.980267848092168e-06
2020-07-31 14:35:17.907,0.0390472412109375,-0.001678466796875,-0.9782867431640625,0.0008088020258583128,-0.004820055328309536,-0.00475454144179821,0.9997267079052753,5.872233192227151e-05,0.023377746703088124,-1.2651263805865415e-05
2020-07-31 14:35:17.917,0.04559326171875,-0.0009307861328125,-0.9738922119140625,-0.0011291803093627095,-0.006865096744149923,-0.003896737238392234,0.9997224161719032,-0.00021412898329834082,0.0235602149196917,-2.242405999421519e-05
2020-07-31 14:35:17.927,0.0528717041015625,0.00030517578125,-0.972198486328125,-0.00020399813365656883,-0.008816128596663475,-0.004737763665616512,0.9997109720122491,-0.0005027374529813877,0.024036534450959633,-3.0645152100625954e-05
2020-07-31 14:35:17.937,0.0560150146484375,0.00347900390625,-0.970001220703125,-0.0011169298086315393,-0.008557002991437912,-0.0032692966051399708,0.9997000047395745,-0.0007854409998395875,0.02448056673507357,-3.660866731333743e-05
2020-07-31 14:35:17.947,0.0542144775390625,0.004852294921875,-0.9713287353515625,0.0013105415273457766,-0.010859837755560875,-0.003832821501418948,0.9996949383820769,-0.0009760567974918588,0.02467951718397807,-3.760206312018714e-05
2020-07-31 14:35:17.957,0.0471954345703125,0.0048675537109375,-0.9734344482421875,0.0019715381786227226,-0.006903446279466152,-0.004375040996819735,0.9996977994754433,-0.0009730305064050363,0.024563664301276704,-3.360366539351125e-05
2020-07-31 14:35:17.967,0.0407562255859375,0.003204345703125,-0.9768524169921875,-0.0013944311067461967,-0.0063210129737854,-0.005293032620102167,0.9997057268214888,-0.0008482137137650642,0.02424310535578901,-3.254316647272383e-05
2020-07-31 14:35:17.977,0.0367584228515625,0.0001373291015625,-0.9781951904296875,0.001261273049749434,-0.004260525107383728,-0.005495432764291763,0.9997143097321594,-0.0007140263269958928,0.023890816002308614,-3.4377325814483045e-05
2020-07-31 14:35:17.987,0.037261962890625,-0.000640869140625,-0.9778594970703125,0.002353968098759651,-0.006177202332764864,-0.005041630007326603,0.9997193760076063,-0.0006187418254642097,0.02368256230228727,-3.6429179389015164e-05
2020-07-31 14:35:17.998,0.0434417724609375,-0.0017547607421875,-0.974945068359375,0.0006199838826432824,-0.007919974625110626,-0.005231780000030994,0.999719375864682,-0.0005476108385857456,0.023682640512914622,-4.1788757137104335e-05
2020-07-31 14:35:18.007,0.0508575439453125,-0.003631591796875,-0.9734344482421875,-0.0014804512029513717,-0.004821120295673609,-0.0041124531999230385,0.9997147861859711,-0.0005356438558241439,0.023876481950731804,-4.8591640297259986e-05
2020-07-31 14:35:18.017,0.0546112060546875,-0.0024871826171875,-0.9715118408203125,-0.001874332781881094,-0.009369000792503357,-0.004619252867996693,0.9997087065564648,-0.000614365857220628,0.02412776604035789,-4.9863638974730833e-05
2020-07-31 14:35:18.028,0.0545196533203125,0.000457763671875,-0.972808837890625,-0.0018437063554301858,-0.008620652370154858,-0.003962783608585596,0.9997049514231607,-0.0007119338788555467,0.024279723214177904,-5.3208472102843346e-05
2020-07-31 14:35:18.038,0.0501708984375,0.002777099609375,-0.9744415283203125,0.0001651159836910665,-0.008255532942712307,-0.0046549392864108086,0.9997056069545126,-0.0008008234898529812,0.024251297877454957,-5.745297048305602e-05
2020-07-31 14:35:18.048,0.0432891845703125,0.0053863525390625,-0.975067138671875,0.00016884441720321774,-0.007412109989672899,-0.00344559783115983,0.9997096003655848,-0.0008287572280347605,0.024084239836958066,-5.932278273952273e-05
2020-07-31 14:35:18.058,0.0385284423828125,0.007049560546875,-0.978271484375,0.0013691311469301581,-0.00440992834046483,-0.0042719766497612,0.9997150243053254,-0.0007855616309396071,0.02385935036957835,-5.983598790526836e-05
2020-07-31 14:35:18.067,0.0376434326171875,0.0089111328125,-0.97705078125,0.001615207176655531,-0.004815527703613043,-0.005555620416998863,0.9997193156868239,-0.0007325446835630021,0.023679529204078828,-6.350747796195888e-05
2020-07-31 14:35:18.078,0.0421295166015625,0.0070343017578125,-0.9763336181640625,0.002840527566149831,-0.0038575888611376286,-0.0026762105990201235,0.9997200308216908,-0.0006518569013675954,0.02365212755788683,-6.771156822668294e-05
2020-07-31 14:35:18.087,0.048797607421875,0.005096435546875,-0.9739837646484375,0.0013680658303201199,-0.006928746122866869,-0.0057463026605546474,0.9997175869729804,-0.0005441707699984592,0.023759098280017366,-7.108680395998592e-05
2020-07-31 14:35:18.097,0.052947998046875,0.00341796875,-0.973541259765625,0.002210689941421151,-0.007978830486536026,-0.0027417242527008057,0.9997140703787871,-0.0004678832149298238,0.02390693067984711,-6.973406305052237e-05
2020-07-31 14:35:18.107,0.053741455078125,-0.00048828125,-0.9723052978515625,-0.000365918327588588,-0.0060118199326097965,-0.003965446725487709,0.9997110901874161,-0.00046128954648828456,0.024033050207779315,-6.964209583987058e-05
2020-07-31 14:35:18.117,0.0514678955078125,-0.004791259765625,-0.974334716796875,0.0004676510870922357,-0.009556487202644348,-0.003751062322407961,0.9997101364239854,-0.0004886968396397878,0.024071006053500505,-7.346141767479512e-05
2020-07-31 14:35:18.127,0.0450286865234375,-0.006988525390625,-0.9762115478515625,-5.00674286740832e-05,-0.008331432938575745,-0.0038951393216848373,0.9997121629667206,-0.0005680505855293741,0.023985287362348225,-7.309029929320954e-05
2020-07-31 14:35:18.137,0.0397186279296875,-0.0062103271484375,-0.9783782958984375,-0.0032722260802984238,-0.004881574306637049,-0.004207261838018894,0.999715620047135,-0.0006831159737746027,0.023837254823455275,-7.103031715669201e-05
2020-07-31 14:35:18.147,0.0381622314453125,-0.0054931640625,-0.9779205322265625,-0.0024498419370502234,-0.00546240946277976,-0.005049353465437889,0.999718957612261,-0.0008229193303543373,0.02369334311073078,-8.058976339654491e-05
2020-07-31 14:35:18.158,0.0411376953125,-0.00213623046875,-0.9771881103515625,-0.00230789533816278,-0.006748716346919537,-0.004653607495129108,0.9997200899258839,-0.0009184849600679188,0.023642625813749443,-8.665394827092154e-05
2020-07-31 14:35:18.167,0.0459442138671875,0.003082275390625,-0.9749755859375,-0.0016290555940940976,-0.00666429428383708,-0.0032527849543839693,0.9997188978107607,-0.0009792734582047887,0.02368997213736344,-8.807391407273182e-05
2020-07-31 14:35:18.177,0.0509796142578125,0.0071868896484375,-0.9739837646484375,-0.00029401297797448933,-0.007586546707898378,-0.004986236337572336,0.9997165135938689,-0.0010019317865421784,0.023788616561318473,-9.03996453340156e-05
2020-07-31 14:35:18.187,0.053466796875,0.0083770751953125,-0.972564697265625,0.0026317357551306486,-0.008261658251285553,-0.004781439434736967,0.9997143081527161,-0.0009552451178813541,0.023882827916571887,-9.407809169956121e-05
2020-07-31 14:35:18.198,0.0514068603515625,0.007965087890625,-0.972381591796875,0.0025478461757302284,-0.007301056291908026,-0.004340952727943659,0.999713235351547,-0.000848638553047959,0.023933116512898405,-9.148495150832937e-05
2020-07-31 14:35:18.207,0.046905517578125,0.006500244140625,-0.9744873046875,0.0023555660154670477,-0.008823052980005741,-0.004107926040887833,0.9997143082363001,-0.0007170223357681066,0.023892276396245492,-9.089667190171209e-05
2020-07-31 14:35:18.217,0.04248046875,0.00323486328125,-0.97705078125,0.0009555422002449632,-0.006050169467926025,-0.0036128442734479904,0.9997166328553231,-0.0006106719937469167,0.023793335458628273,-8.826479216011075e-05
2020-07-31 14:35:18.228,0.039825439453125,-0.0003509521484375,-0.9788970947265625,-0.00016298545233439654,-0.006099171470850706,-0.0035388083197176456,0.9997191957700737,-0.0005219265190345025,0.0236914371066328,-9.024884253339263e-05
2020-07-31 14:35:18.238,0.040618896484375,-0.0028076171875,-0.978790283203125,0.00022264027211349458,-0.006184126250445843,-0.0027832696214318275,0.9997205666376999,-0.00048648995330248247,0.02363222081679075,-9.102648684861952e-05
2020-07-31 14:35:18.248,0.0452423095703125,-0.00323486328125,-0.977203369140625,-8.81506348378025e-05,-0.0037920749746263027,-0.004764928016811609,0.9997202686362403,-0.0005236888781994655,0.023645044250771945,-9.037320372479499e-05
2020-07-31 14:35:18.258,0.050384521484375,-0.001190185546875,-0.97442626953125,-0.002998985582962632,-0.005917011294513941,-0.003894074121490121,0.999718659253869,-0.0006042805308994509,0.02371082197236229,-9.332890424488689e-05
2020-07-31 14:35:18.268,0.0535736083984375,0.00128173828125,-0.972900390625,-0.0032810145057737827,-0.010538128204643726,-0.0032000544015318155,0.9997169306613708,-0.0007000889805444929,0.023781910498114,-9.638602574694046e-05
2020-07-31 14:35:18.278,0.05218505859375,0.0031585693359375,-0.974822998046875,-0.0025337315164506435,-0.008238755166530609,-0.004530835896730423,0.9997160366080918,-0.0007848939746490638,0.02381550368582753,-9.620198939503989e-05
2020-07-31 14:35:18.288,0.048095703125,0.004058837890625,-0.974884033203125,-7.084008393576369e-05,-0.007525027729570866,-0.003665042342618108,0.9997162153342918,-0.0008372157431080452,0.023806346444946985,-9.943946208763852e-05
2020-07-31 14:35:18.298,0.042205810546875,0.0056915283203125,-0.9770050048828125,0.0018194715958088636,-0.00657587731257081,-0.0047031426802277565,0.9997175265375325,-0.0008403812727143431,0.023752696760789466,-0.00010255939277149269
2020-07-31 14:35:18.309,0.0391082763671875,0.00408935546875,-0.9782257080078125,0.0023840616922825575,-0.006624612957239151,-0.004054396413266659,0.9997192549742793,-0.0008017585915664697,0.02367926840419254,-0.000105390248246653
2020-07-31 14:35:18.318,0.0398712158203125,0.0028533935546875,-0.9788055419921875,0.0019497001776471734,-0.004801146686077118,-0.0031214910559356213,0.99972044712739,-0.0007407335268295751,0.023630143248196997,-0.00010251479621775018
2020-07-31 14:35:18.328,0.043182373046875,0.0022430419921875,-0.977020263671875,0.0007813714328221977,-0.006167082116007805,-0.0029792783316224813,0.9997205066836705,-0.0006914083456474894,0.02362829792364486,-0.00010429269209230511
2020-07-31 14:35:18.338,0.0488128662109375,7.62939453125e-05,-0.975616455078125,0.0007880293414928019,-0.007407050114125013,-0.004524444229900837,0.9997193741100553,-0.0006629711047871358,0.02367680790087432,-0.00010806090749341984
2020-07-31 14:35:18.348,0.0526580810546875,-0.0009613037109375,-0.97430419921875,0.0005637911963276565,-0.008734103292226791,-0.004503405187278986,0.9997180032074624,-0.0006624645670830143,0.023738915927025837,-0.00010861724076878233
2020-07-31 14:35:18.358,0.0530548095703125,-0.0016937255859375,-0.9749298095703125,0.00024048343766480684,-0.009868077002465725,-0.0038719698786735535,0.9997169898601753,-0.0006857570820543207,0.02377765397476855,-0.00011165810506255694
2020-07-31 14:35:18.368,0.0498046875,-0.0015869140625,-0.974853515625,-0.0010905644157901406,-0.010634801350533962,-0.0033068470656871796,0.9997171090897448,-0.0007136013569000006,0.023773255144105897,-0.00011085691016803816
2020-07-31 14:35:18.378,0.0449981689453125,0.000518798828125,-0.9774627685546875,-0.0006940197781659663,-0.008037952706217766,-0.004063451196998358,0.9997184203647776,-0.0007592150586051068,0.023715125059545886,-0.00011123723758811692
2020-07-31 14:35:18.388,0.0402679443359375,0.00091552734375,-0.9787139892578125,-0.001422128058038652,-0.0065316688269376755,-0.0034466630313545465,0.9997200892355583,-0.0007827913208382679,0.02364452025703159,-0.00011267450990426218
2020-07-31 14:35:18.398,0.038818359375,0.0016632080078125,-0.9799652099609375,-0.0001968075957847759,-0.0028597023338079453,-0.004084490239620209,0.9997212812661416,-0.0007985387132649723,0.023593612719623146,-0.00011444950231132513
2020-07-31 14:35:18.408,0.041717529296875,0.003173828125,-0.9789276123046875,0.0004117247008252889,-0.005000085104256868,-0.004384628497064114,0.9997214600428531,-0.0007982438830145895,0.023587320696541587,-0.00011578267346985208
2020-07-31 14:35:18.418,0.047027587890625,0.0030364990234375,-0.976776123046875,0.00044341632747091353,-0.005007808096706867,-0.004063983913511038,0.9997206850695013,-0.0007858636712994051,0.02362117021898523,-0.0001204333825176277
2020-07-31 14:35:18.428,0.0518798828125,0.002777099609375,-0.97509765625,0.0010748518398031592,-0.007450193166732788,-0.004523379262536764,0.999719254435274,-0.0007584177342923867,0.02368181908087014,-0.0001257544395583126
2020-07-31 14:35:18.438,0.053497314453125,0.002899169921875,-0.974700927734375,0.0012607404496520758,-0.008354336023330688,-0.0038599856197834015,0.9997182411533415,-0.000723286905463418,0.023725895785399836,-0.00012635562827835898
2020-07-31 14:35:18.448,0.051055908203125,0.0030670166015625,-0.9746856689453125,-0.0012128035305067897,-0.007404386531561613,-0.004860002547502518,0.9997179430840129,-0.0006998485486541594,0.02373886476301187,-0.00012823361771467293
2020-07-31 14:35:18.458,0.0473480224609375,0.0014190673828125,-0.9761962890625,-0.0002069276088150218,-0.00830000825226307,-0.005402222275733948,0.9997185391129151,-0.000698148765725339,0.023714782578978865,-0.00012861747647184058
2020-07-31 14:35:18.467,0.042388916015625,0.0004119873046875,-0.9783935546875,0.00017603494052309543,-0.00839641410857439,-0.0038160434924066067,0.9997200292126432,-0.0006911507658608414,0.02365261474947101,-0.00012851528750359794
2020-07-31 14:35:18.478,0.040740966796875,0.0013580322265625,-0.979705810546875,0.0010602044640108943,-0.004979312419891357,-0.003656253917142749,0.9997215789147093,-0.0006915268461109029,0.023588834064494257,-0.00012848573827205787
2020-07-31 14:35:18.487,0.040496826171875,0.000457763671875,-0.978057861328125,-0.0012828446924686432,-0.005049353465437889,-0.00487331859767437,0.9997221152912596,-0.0007099288741396143,0.023561462981405722,-0.00013064492071975718
2020-07-31 14:35:18.497,0.044097900390625,0.00140380859375,-0.978973388671875,0.0014769891276955605,-0.005423794034868479,-0.005225654691457748,0.9997217575764782,-0.000727102834588479,0.023575939914178543,-0.0001341044158036269
2020-07-31 14:35:18.507,0.048309326171875,0.00244140625,-0.9756927490234375,0.0007358313887380064,-0.00663446681573987,-0.004529770463705063,0.9997206250112403,-0.0007268272400979663,0.023623560292611853,-0.00013756170176901483
2020-07-31 14:35:18.518,0.0512542724609375,0.0026092529296875,-0.975799560546875,0.0008149272762238979,-0.006607568822801113,-0.004752943757921457,0.999719432751693,-0.0007413449436616503,0.023677894035807254,-0.00014449145585299805
2020-07-31 14:35:18.527,0.0515289306640625,0.0034027099609375,-0.975311279296875,-0.0003478088474366814,-0.007534082513302565,-0.0030120352748781443,0.9997188367314849,-0.0007489167488993978,0.023702911423151434,-0.00014379327023331155
2020-07-31 14:35:18.537,0.0485687255859375,0.002838134765625,-0.9771881103515625,-0.0004191815387457609,-0.008223309181630611,-0.004541222471743822,0.9997189559846044,-0.0007473279940840901,0.023697654996477177,-0.0001420762052140756
2020-07-31 14:35:18.547,0.044189453125,0.002105712890625,-0.978240966796875,0.00026312030968256295,-0.00481313094496727,-0.0028485171496868134,0.9997199096676203,-0.0007337441926445957,0.023657944905067473,-0.00014128177237796605
2020-07-31 14:35:18.558,0.0408477783203125,0.001556396484375,-0.9785919189453125,-0.0004772384709212929,-0.004484763368964195,-0.004680239129811525,0.9997207441833351,-0.0007357266777729445,0.0236187586290691,-0.00013891617086153686
2020-07-31 14:35:18.567,0.0403289794921875,0.00146484375,-0.9785919189453125,0.0024311996530741453,-0.005091431550681591,-0.004887965973466635,0.9997215785336308,-0.0007224547028964575,0.023585282819263687,-0.00014285599670675673
2020-07-31 14:35:18.577,0.04388427734375,0.0010986328125,-0.9779205322265625,0.0002996056282427162,-0.0060054282657802105,-0.003952131140977144,0.9997216975967166,-0.000717511989537211,0.023581196045040078,-0.0001483283988640378
2020-07-31 14:35:18.588,0.0467376708984375,0.0019378662109375,-0.976165771484375,-0.0006436860421672463,-0.007318366784602404,-0.005268797744065523,0.9997212803231508,-0.000717720447549753,0.023598146121373585,-0.00015007472657582984
2020-07-31 14:35:18.598,0.049957275390625,0.0028228759765625,-0.97528076171875,0.0014359764754772186,-0.006717823911458254,-0.002897519152611494,0.9997205053758148,-0.0007263765432271081,0.023631977574287703,-0.00015375433454598895
2020-07-31 14:35:18.608,0.0514984130859375,0.00146484375,-0.9753265380859375,0.0017670074012130499,-0.008845689706504345,-0.005758286919444799,0.9997198496494681,-0.0007388763775573214,0.023659377415295106,-0.00015691997330111407
2020-07-31 14:35:18.618,0.0517120361328125,0.00048828125,-0.9762725830078125,-0.0012370382901281118,-0.00777536490932107,-0.00487358495593071,0.9997196706996017,-0.0007482733991797765,0.02366678354124064,-0.00016214505470288495
2020-07-31 14:35:18.628,0.04681396484375,-0.00018310546875,-0.97711181640625,-0.0012096078135073185,-0.00803049560636282,-0.004326038993895054,0.9997203262420706,-0.0007627061943552267,0.023636979738517448,-0.0001659121020527837
2020-07-31 14:35:18.638,0.0422210693359375,-0.0001220703125,-0.9793701171875,-6.125270374468528e-06,-0.0064373929053545,-0.00529622845351696,0.9997212797343624,-0.000767940440781085,0.023598056181666365,-0.00017234119464775157
2020-07-31 14:35:18.647,0.0414581298828125,-0.0003204345703125,-0.980560302734375,-0.002122006844729185,-0.005864813458174467,-0.0038224351592361927,0.999722114220906,-0.0007698886244530865,0.023561702988015784,-0.00017111008220403696
2020-07-31 14:35:18.658,0.041839599609375,-7.62939453125e-05,-0.980224609375,-0.0010897654574364424,-0.0027150926180183887,-0.0030447919853031635,0.9997219947954954,-0.00077629240776308,0.023565651965384554,-0.0001793224542022757
2020-07-31 14:35:18.668,0.0453338623046875,0.0013427734375,-0.97735595703125,-0.0011462245602160692,-0.00600436283275485,-0.004263720940798521,0.9997216967539405,-0.0007816385036302284,0.02357833113240957,-0.00018016414507462255
2020-07-31 14:35:18.678,0.048370361328125,0.003875732421875,-0.9768829345703125,0.00021278657368384302,-0.006548446603119373,-0.005742574110627174,0.9997210409862569,-0.000791936781861773,0.02360669390268505,-0.0001849010116190402
2020-07-31 14:35:18.688,0.05157470703125,0.002716064453125,-0.9763031005859375,0.0024234766606241465,-0.008315720595419407,-0.00333161442540586,0.9997202661280766,-0.0007828480682854725,0.023637278295297378,-0.00018516571631629417
2020-07-31 14:35:18.698,0.0511016845703125,0.00390625,-0.9758758544921875,0.0013313142117112875,-0.009362609125673771,-0.004355067387223244,0.999719729663046,-0.0007679012837145915,0.023661024762494046,-0.0001863087064716069
2020-07-31 14:35:18.708,0.0481719970703125,0.0038299560546875,-0.9767303466796875,0.00261788722127676,-0.009619870223104954,-0.003793406533077359,0.9997200276801782,-0.000754481397766843,0.023647585422516874,-0.00018637621679839096
2020-07-31 14:35:18.719,0.0444793701171875,0.00262451171875,-0.9789581298828125,0.00033182985498569906,-0.007059773895889521,-0.002894856035709381,0.9997208025171267,-0.0007442564260134251,0.023616093410409232,-0.0001868922019098394
2020-07-31 14:35:18.728,0.0409393310546875,0.0006561279296875,-0.9806976318359375,0.0013041499769315124,-0.006946056615561247,-0.0052325790748000145,0.9997215772846829,-0.0007299210228485461,0.023583856231465566,-0.00019001834822815545
2020-07-31 14:35:18.739,0.0417633056640625,-0.000457763671875,-0.9802398681640625,-0.0012684636749327183,-0.006269347388297319,-0.004881307948380709,0.9997222923718188,-0.0007176912238155147,0.023555973972637506,-0.00019605806342594677
2020-07-31 14:35:18.748,0.044189453125,-0.0002593994140625,-0.9801177978515625,0.0005739112384617329,-0.0059814597479999065,-0.004248274490237236,0.9997223518865294,-0.000718087305378229,0.023554550922278164,-0.0001994387951540347
2020-07-31 14:35:18.758,0.0475006103515625,0.00128173828125,-0.97784423828125,0.00017470336752012372,-0.007131412625312805,-0.004447478801012039,0.9997219942231724,-0.0007305093098028331,0.02356901469069825,-0.0002009531051991598
2020-07-31 14:35:18.768,0.0506134033203125,0.00311279296875,-0.976318359375,0.0017358483746647835,-0.008478972129523754,-0.00484322477132082,0.9997213981138332,-0.0007365440446502746,0.023593264627605665,-0.00020361182764482293
2020-07-31 14:35:18.778,0.0516357421875,0.0037841796875,-0.97589111328125,0.001032507512718439,-0.006960703991353512,-0.003924434073269367,0.9997210403843104,-0.0007483177378538052,0.02360748437238698,-0.00020762214017259624
2020-07-31 14:35:18.788,0.0504608154296875,0.00445556640625,-0.976776123046875,0.0005811017472296953,-0.007850999012589455,-0.003668504301458597,0.9997209808343339,-0.0007608961509455459,0.023610818840167122,-0.00020560274402935282
2020-07-31 14:35:18.797,0.0464935302734375,0.0042877197265625,-0.978485107421875,0.0008554073283448815,-0.008444351144134998,-0.004020840395241976,0.9997212787921775,-0.0007623433257340073,0.023594800130326422,-0.00020788824727217053
2020-07-31 14:35:18.808,0.042999267578125,0.002471923828125,-0.9788055419921875,0.0007219829712994397,-0.006117281038314104,-0.0043862261809408665,0.9997221728594966,-0.0007517876504927407,0.023559893880895705,-0.00020756837348884469
2020-07-31 14:35:18.817,0.0413665771484375,0.0010833740234375,-0.9807586669921875,0.0008689894457347691,-0.004622981417924166,-0.004932973068207502,0.9997227688981472,-0.0007371549958763514,0.023533719603980742,-0.00020755266912194566
2020-07-31 14:35:18.828,0.04254150390625,0.00115966796875,-0.9804840087890625,0.0003177151083946228,-0.0062461779452860355,-0.004476241301745176,0.9997228284354305,-0.0007202834795316784,0.02353247491038133,-0.0002100732027743202
2020-07-31 14:35:18.838,0.045379638671875,0.0018310546875,-0.9788970947265625,0.0009166600648313761,-0.006183327175676823,-0.004516721237450838,0.9997224112323773,-0.000714785178792772,0.0235480706925809,-0.00020913735616214795
2020-07-31 14:35:18.847,0.0474090576171875,0.0009613037109375,-0.9779205322265625,-0.0008857673965394497,-0.005985986907035112,-0.0028522454667836428,0.999721695984173,-0.000723111813227876,0.023577768927162554,-0.0002092001890488469
2020-07-31 14:35:18.858,0.0500335693359375,0.0013580322265625,-0.9774322509765625,0.0008761800127103925,-0.008332764729857445,-0.0043505397625267506,0.9997211595368571,-0.0007335928250686967,0.0236032352890034,-0.0002097081268154891
2020-07-31 14:35:18.867,0.0497894287109375,0.0025787353515625,-0.97747802734375,0.0016029566759243608,-0.007513576187193394,-0.0034647725988179445,0.9997207422360568,-0.0007438633145337317,0.023621523010946336,-0.00021250419635063846
2020-07-31 14:35:18.878,0.0476226806640625,0.002410888671875,-0.97808837890625,0.003522296901792288,-0.009268066845834255,-0.004140949342399836,0.9997211593728382,-0.000738780716985931,0.02360249223103861,-0.00021589769816476214
2020-07-31 14:35:18.888,0.045928955078125,0.001373291015625,-0.9788665771484375,-3.408846168895252e-05,-0.009013734757900238,-0.00577719509601593,0.9997216956591148,-0.0007423727704197774,0.02358042184394059,-0.00022151948237159638
2020-07-31 14:35:18.897,0.042724609375,9.1552734375e-05,-0.9789886474609375,0.0017547567840665579,-0.007778294384479523,-0.004376106429845095,0.9997224107694586,-0.0007295169670106262,0.023551831763377454,-0.000226674091707825
2020-07-31 14:35:18.907,0.0435638427734375,0.000335693359375,-0.9794158935546875,0.0003121224872302264,-0.006669620517641306,-0.004702343605458736,0.999722708701726,-0.0007295549024269382,0.023534809050517493,-0.00022991328339194331
2020-07-31 14:35:18.918,0.04449462890625,-0.0005035400390625,-0.9788665771484375,-0.0003091930120717734,-0.006983341183513403,-0.005240302067250013,0.9997227682459612,-0.0007285721281717839,0.02353243787726629,-0.0002321671289636839
2020-07-31 14:35:18.928,0.04632568359375,-0.0007781982421875,-0.9785003662109375,0.00035979304811917245,-0.007699997629970312,-0.00510021997615695,0.9997227085501994,-0.0007297414513088268,0.02353719324130495,-0.00023566425844875481
2020-07-31 14:35:18.938,0.0483245849609375,-0.0005340576171875,-0.9776611328125,-0.0020580908749252558,-0.010009224526584148,-0.004310326185077429,0.9997224105706196,-0.0007354731130049235,0.023547765766863436,-0.00023414098678806788
2020-07-31 14:35:18.947,0.0488433837890625,0.0006866455078125,-0.9765472412109375,-0.0027712853625416756,-0.0065622953698039055,-0.004234692547470331,0.999722112533429,-0.000749649487174045,0.023560385563023575,-0.0002348220854221197
2020-07-31 14:35:18.958,0.0481414794921875,0.000518798828125,-0.976318359375,-7.616640505148098e-05,-0.007183344569057226,-0.002103630919009447,0.9997221722078399,-0.000760653590335002,0.023558096663437764,-0.0002321666569346664
2020-07-31 14:35:18.968,0.0446014404296875,0.001434326171875,-0.9792022705078125,-0.0008452873444184661,-0.007475759368389845,-0.005819006823003292,0.9997223509194706,-0.0007665202335297393,0.023551096998369044,-0.00023595331924147246
2020-07-31 14:35:18.978,0.0428009033203125,0.002410888671875,-0.9804534912109375,-0.0003150519623886794,-0.005080778617411852,-0.0033633061684668064,0.9997227083622255,-0.0007641280726287215,0.023533455823024307,-0.00024274045783495267
2020-07-31 14:35:18.988,0.0428009033203125,0.0027313232421875,-0.981201171875,-0.0016282566357403994,-0.0075636436231434345,-0.006329002324491739,0.9997231849452105,-0.0007634311068315478,0.02351747617201625,-0.00025215612704461557
2020-07-31 14:35:18.998,0.0443878173828125,0.0020294189453125,-0.979461669921875,-0.000627707049716264,-0.007690676487982273,-0.004911135416477919,0.9997233636337223,-0.0007571961567554736,0.023510008662643633,-0.0002568038661337306
2020-07-31 14:35:19.008,0.04754638671875,0.0016021728515625,-0.978973388671875,-0.0030602384358644485,-0.004318581894040108,-0.004782238509505987,0.9997231250795355,-0.0007576286884670504,0.02351909838246793,-0.00026203111143161407
2020-07-31 14:35:19.018,0.050048828125,0.002410888671875,-0.977081298828125,-0.0003400856803636998,-0.006404902320355177,-0.0046421559527516365,0.9997228270132809,-0.0007499970756316213,0.023530316892141585,-0.0002637816527706512
2020-07-31 14:35:19.028,0.050872802734375,0.0023040771484375,-0.97662353515625,-1.5446334145963192e-05,-0.00851465854793787,-0.004254666157066822,0.9997227078349356,-0.0007520639032607632,0.023537301866109698,-0.00026269457843213276
2020-07-31 14:35:19.038,0.0496063232421875,0.0011749267578125,-0.9766693115234375,-0.000969923275988549,-0.00854581780731678,-0.0037758296821266413,0.9997226482930112,-0.0007571096135438955,0.023535914329057668,-0.0002603123862654433
2020-07-31 14:35:19.048,0.0470428466796875,0.001708984375,-0.97821044921875,-0.0006503439508378506,-0.005995574407279491,-0.005020857788622379,0.9997229462726777,-0.0007630700797580477,0.02352483547357346,-0.0002618330858135087
2020-07-31 14:35:19.058,0.044403076171875,0.00347900390625,-0.979339599609375,-0.000716922979336232,-0.0072959959506988525,-0.004340420011430979,0.9997234230393667,-0.0007681901959574874,0.0235051791149873,-0.0002642708516525401
2020-07-31 14:35:19.068,0.042388916015625,0.0037384033203125,-0.97979736328125,0.0010871023405343294,-0.006660832092165947,-0.0028969866689294577,0.999723780720357,-0.0007713476141457455,0.02348974345826583,-0.0002620880168479051
2020-07-31 14:35:19.077,0.0437164306640625,0.0045166015625,-0.9793853759765625,0.0019981698133051395,-0.006103698629885912,-0.005732454359531403,0.9997238998775259,-0.0007707958524491241,0.02348355201124545,-0.0002639849493653703
2020-07-31 14:35:19.088,0.0460052490234375,0.0036468505859375,-0.979583740234375,0.002198173198848963,-0.006966829299926758,-0.004584099166095257,0.9997237806476235,-0.0007626749777242661,0.0234891862978052,-0.0002648239925169615
2020-07-31 14:35:19.097,0.048919677734375,0.0039825439453125,-0.9767913818359375,-0.00025752768851816654,-0.00923531036823988,-0.004554804414510727,0.9997233633792477,-0.000763550890262114,0.023506618816894802,-0.00026638022148309595
2020-07-31 14:35:19.108,0.0494384765625,0.0008392333984375,-0.9778900146484375,-0.0002460760879330337,-0.007215834688395262,-0.004261057823896408,0.9997230057313269,-0.0007646779728720691,0.023521708135036144,-0.0002673123787098064
2020-07-31 14:35:19.118,0.0494384765625,0.0008392333984375,-0.9778900146484375,0.00245090713724494,-0.006494384724646807,-0.003596865339204669,0.9997226481062647,-0.0007583318187507815,0.023537315070656286,-0.00026738291475768966
2020-07-31 14:35:19.128,0.044525146484375,-0.00128173828125,-0.979827880859375,0.0016674051294103265,-0.007417702581733465,-0.0038392129354178905,0.9997227077298829,-0.0007490153833849836,0.023537637061581948,-0.00026666473282382317
2020-07-31 14:35:19.138,0.044525146484375,-0.00128173828125,-0.979827880859375,-0.000559530162718147,-0.007928763516247272,-0.004093278665095568,0.9997229460996129,-0.000761126048503149,0.02352300816733158,-0.00026834784664752514
2020-07-31 14:35:19.148,0.04296875,-0.003631591796875,-0.9806365966796875,7.723167072981596e-06,-0.007842210121452808,-0.004454403184354305,0.9997234824853918,-0.0007771248486076267,0.0235003495127861,-0.00027021144251748264
2020-07-31 14:35:19.158,0.0446319580078125,-0.0027313232421875,-0.9811553955078125,-0.002412557601928711,-0.00794314406812191,-0.0038341530598700047,0.9997238997112166,-0.000798344159937625,0.02348496462568705,-0.0002702983934088187
2020-07-31 14:35:19.168,0.04693603515625,0.00115966796875,-0.978759765625,-0.0011321097845211625,-0.005803560372442007,-0.004391818773001432,0.9997238996528669,-0.0008102558606725601,0.023483921859810384,-0.00027249698769726745
2020-07-31 14:35:19.178,0.0484619140625,0.0023651123046875,-0.9786224365234375,-0.0019648801535367966,-0.005196892656385899,-0.005250954534858465,0.9997234226951702,-0.0008288060595811427,0.023501468468245173,-0.00027726279086177577
2020-07-31 14:35:19.188,0.0484619140625,0.0023651123046875,-0.9786224365234375,0.00034914040588773787,-0.009677394293248653,-0.003989947959780693,0.9997230054391888,-0.0008386555323237654,0.023519802745144803,-0.00027836628337259275
2020-07-31 14:35:19.197,0.047088623046875,0.0045928955078125,-0.9794158935546875,0.0015899071004241705,-0.0070251524448394775,-0.004589691758155823,0.9997228861715288,-0.0008336003108770526,0.023524271097038783,-0.0002806197590680679
2020-07-31 14:35:19.207,0.0455780029296875,0.0045928955078125,-0.9793853759765625,0.002775812754407525,-0.0070254188030958176,-0.0057798586785793304,0.9997228264295777,-0.00081583337273438,0.02352789719681817,-0.00028583792323081357
2020-07-31 14:35:19.218,0.0444793701171875,0.003753662109375,-0.980560302734375,0.0021904499735683203,-0.007453921716660261,-0.005118329077959061,0.9997230647541031,-0.0007915121979903953,0.023520393818319503,-0.00028929024766046857
2020-07-31 14:35:19.227,0.0444793701171875,0.003753662109375,-0.980560302734375,0.002170742489397526,-0.005138835404068232,-0.0030328077264130116,0.9997234224150007,-0.0007576470706911026,0.023506039378256585,-0.00028785810573281556
2020-07-31 14:35:19.238,0.04443359375,0.0002899169921875,-0.97967529296875,-0.0002769687562249601,-0.006651510950177908,-0.0036642432678490877,0.9997238396457355,-0.0007259067237830091,0.02348848310747359,-0.0002877049338928324
2020-07-31 14:35:19.248,0.04443359375,0.0002899169921875,-0.97967529296875,0.0008258462767116725,-0.004996090196073055,-0.0031467911321669817,0.9997239588671574,-0.0007013178453152139,0.02348567545023196,-0.00028720050200179754
2020-07-31 14:35:19.258,0.04638671875,-0.0003814697265625,-0.9785919189453125,0.0005768407136201859,-0.004999818746000528,-0.004291950259357691,0.9997237203437694,-0.0007002512728386497,0.02349568900233369,-0.0002912742456262961
2020-07-31 14:35:19.268,0.0482940673828125,-0.0001983642578125,-0.9783782958984375,-0.0014495585346594453,-0.00845340546220541,-0.004503937903791666,0.9997234222350923,-0.0007144042920193732,0.023504399105791968,-0.00029461041397141764
2020-07-31 14:35:19.278,0.0475311279296875,-0.0007476806640625,-0.978271484375,0.0005416869535110891,-0.007521831896156073,-0.00404534162953496,0.9997232434145796,-0.0007355236617649329,0.02351535760627329,-0.00029499711811200756
2020-07-31 14:35:19.288,0.0475311279296875,-0.0007476806640625,-0.978271484375,-0.001508680754341185,-0.0057622818276286125,-0.0032804817892611027,0.9997230646524639,-0.0007584441045343942,0.023521506804685004,-0.0002931236485319007
2020-07-31 14:35:19.298,0.046783447265625,-0.000885009765625,-0.9791259765625,-0.002382730133831501,-0.006710633169859648,-0.004345746245235205,0.9997231242335034,-0.0007776345934597221,0.02351909332466248,-0.00029399813878624293
2020-07-31 14:35:19.308,0.044769287109375,-0.0002593994140625,-0.9799957275390625,-0.0005739112384617329,-0.007357248570770025,-0.00401498144492507,0.9997234221393007,-0.0007998712093856931,0.023501110074641465,-0.0002982384944638746
2020-07-31 14:35:19.318,0.0436248779296875,0.00164794921875,-0.9802703857421875,-0.0005273058777675033,-0.006849650293588638,-0.004821653012186289,0.9997237797095581,-0.0008047504479177583,0.023488596953772905,-0.00030027286333050065
2020-07-31 14:35:19.328,0.0452117919921875,0.003448486328125,-0.9808349609375,0.0005973470397293568,-0.005370264407247305,-0.004554804414510727,0.9997238392469923,-0.0007996469121931424,0.02348434067455886,-0.0003027595528650478
2020-07-31 14:35:19.338,0.0472564697265625,0.0037689208984375,-0.979522705078125,0.001175519311800599,-0.006196110509335995,-0.004008856136351824,0.9997238988312788,-0.00078291344384138,0.023481695275451752,-0.0003034886294223979
2020-07-31 14:35:19.348,0.049652099609375,0.0037841796875,-0.979949951171875,-9.58738019107841e-06,-0.006959639023989439,-0.00563977612182498,0.9997238987067923,-0.0007725601298020077,0.02348292248455671,-0.00030819902293785056
2020-07-31 14:35:19.358,0.0489044189453125,0.002960205078125,-0.978607177734375,0.0003222425002604723,-0.007140467409044504,-0.0037673076149076223,0.9997237794495082,-0.0007619688431256033,0.023487126194269365,-0.00031005444386318187
2020-07-31 14:35:19.368,0.0489044189453125,0.002960205078125,-0.978607177734375,0.0017275925492867827,-0.0070400661788880825,-0.0056861150078475475,0.9997237793064504,-0.00074066721538548,0.023487464631802048,-0.0003154499382105036
2020-07-31 14:35:19.378,0.04510498046875,0.0024871826171875,-0.9793701171875,0.0006380933918990195,-0.007485613226890564,-0.005093828309327364,0.9997239580529764,-0.0007248622717704164,0.02348274613324018,-0.0003179327277282796
2020-07-31 14:35:19.388,0.0434112548828125,0.001190185546875,-0.98138427734375,0.0014671353856101632,-0.007571367081254721,-0.004987834487110376,0.9997241963487175,-0.0007128481256700104,0.023470515687251548,-0.0003224246738993958
2020-07-31 14:35:19.398,0.0431060791015625,0.0022125244140625,-0.9803009033203125,-0.0011880361707881093,-0.00660543842241168,-0.004828311037272215,0.9997245538580296,-0.0007163778851054657,0.023459898703429877,-0.00032678213914835437
2020-07-31 14:35:19.408,0.0446929931640625,0.0019989013671875,-0.9804534912109375,9.400958515470847e-05,-0.0057409764267504215,-0.0034727619495242834,0.9997246730802585,-0.000718479041005692,0.02344982743680759,-0.00032617841324327217
2020-07-31 14:35:19.418,0.0476837158203125,0.0022735595703125,-0.9782867431640625,0.0016964336391538382,-0.005344964098185301,-0.005317800212651491,0.9997247921751912,-0.0007231517896840308,0.023449311607845805,-0.00033049445762923455
2020-07-31 14:35:19.427,0.0476837158203125,0.0022735595703125,-0.9782867431640625,0.00011398329661460593,-0.0065684206783771515,-0.004728442523628473,0.9997244941048777,-0.0007345523955251447,0.023458261919633964,-0.0003323827968947481
2020-07-31 14:35:19.438,0.048828125,0.0016326904296875,-0.9788665771484375,-1.9707391402334906e-05,-0.008358864113688469,-0.00301762786693871,0.9997243153861942,-0.0007441676351130329,0.023468063412861954,-0.00032890349026984075
2020-07-31 14:35:19.448,0.04754638671875,0.0012664794921875,-0.9805908203125,-5.326322025211994e-06,-0.008021974004805088,-0.0041007352992892265,0.9997241961894104,-0.0007480656274613942,0.023472466809173153,-0.00032848413115050916
2020-07-31 14:35:19.458,0.0451812744140625,-0.000518798828125,-0.9805908203125,0.0016966998809948564,-0.009140768088400364,-0.003905525663867593,0.9997243154054959,-0.0007517687879594443,0.023468482709245488,-0.0003281835220347916
2020-07-31 14:35:19.468,0.0430908203125,-0.00201416015625,-0.980438232421875,0.0026812704745680094,-0.005797435529530048,-0.0046698530204594135,0.999724434557476,-0.0007482964289872523,0.023463343579402475,-0.000330286945319762
2020-07-31 14:35:19.478,0.0426483154296875,-0.0028839111328125,-0.980621337890625,-0.002883138135075569,-0.006876548286527395,-0.003899933071807027,0.9997246729254003,-0.0007526320477084584,0.02344933287749121,-0.0003320410410027074
2020-07-31 14:35:19.488,0.04541015625,-0.0012664794921875,-0.9806060791015625,-0.0008945558220148087,-0.004444549325853586,-0.004767857491970062,0.9997249708045651,-0.0007585678052447077,0.02343929151474535,-0.00033736978752139154
2020-07-31 14:35:19.498,0.0488739013671875,1.52587890625e-05,-0.979278564453125,2.5832661776803434e-05,-0.007272293791174889,-0.004472779110074043,0.9997251495178117,-0.0007650393607111706,0.023431602686993444,-0.0003410878086397511
2020-07-31 14:35:19.508,0.0507354736328125,0.0014801025390625,-0.978668212890625,-0.0017118799732998013,-0.007105047348886728,-0.004077033139765263,0.9997248514018416,-0.0007773768691755868,0.023440830557735718,-0.0003447043918260521
2020-07-31 14:35:19.518,0.051116943359375,0.0029144287109375,-0.9780120849609375,-0.001190433045849204,-0.007771370466798544,-0.0031792817171663046,0.9997244937921252,-0.0007890906000063769,0.023455422829888068,-0.0003441937008105637
2020-07-31 14:35:19.528,0.0493011474609375,0.003997802734375,-0.978607177734375,-0.0026375947054475546,-0.009465406648814678,-0.003665308468043804,0.9997244342450207,-0.0007966409094115034,0.023459120380347486,-0.00034206720103242925
2020-07-31 14:35:19.538,0.046356201171875,0.004547119140625,-0.980010986328125,0.0005150553770363331,-0.009731989353895187,-0.0054632085375487804,0.9997246129906965,-0.0007907227256966342,0.023453865701741253,-0.00034458145481626424
2020-07-31 14:35:19.549,0.046356201171875,0.004547119140625,-0.980010986328125,0.0017142767319455743,-0.008700280450284481,-0.003734018187969923,0.9997249706272917,-0.0007717504498805138,0.023438965900957745,-0.0003440692895119237
2020-07-31 14:35:19.558,0.042266845703125,0.0055084228515625,-0.981048583984375,0.0013819142477586865,-0.006607036106288433,-0.003796602366492152,0.9997252686622696,-0.0007479940110989717,0.023426913957930628,-0.0003434729528504572
2020-07-31 14:35:19.569,0.04290771484375,0.0048828125,-0.9812469482421875,0.0012721919920295477,-0.005527124274522066,-0.004957740660756826,0.9997255666572651,-0.0007213753563813648,0.023415934822742398,-0.00034439758146041994
2020-07-31 14:35:19.578,0.0450439453125,0.003448486328125,-0.9798736572265625,0.0036551884841173887,-0.0063798688352108,-0.004709800239652395,0.9997255070449063,-0.000696713185424883,0.02341565849835491,-0.00034467199237271824
2020-07-31 14:35:19.588,0.0479888916015625,0.002593994140625,-0.97930908203125,0.003245061729103327,-0.00782569870352745,-0.004370513837784529,0.9997251494824031,-0.000682019652216038,0.02343103424494728,-0.00034237225174521335
2020-07-31 14:35:19.598,0.0486297607421875,-0.0002899169921875,-0.978424072265625,0.0030389330349862576,-0.008249940350651741,-0.003704989794641733,0.9997247918850453,-0.0006739473600366154,0.023450668173619016,-0.0003414418191780277
2020-07-31 14:35:19.609,0.0492401123046875,-0.0020294189453125,-0.9789581298828125,0.001844771672040224,-0.008992163464426994,-0.004930043593049049,0.9997243149423154,-0.0006748711310055926,0.02346982550342135,-0.00034565100618785295
2020-07-31 14:35:19.617,0.0492401123046875,-0.0020294189453125,-0.9789581298828125,0.0003818972909357399,-0.0070794811472296715,-0.00395825644955039,0.9997239572771129,-0.0006886759000127879,0.023484915157214157,-0.0003472430093202305
2020-07-31 14:35:19.627,0.04742431640625,-0.0030364990234375,-0.978790283203125,-0.002435727044939995,-0.008741559460759163,-0.0028754149097949266,0.9997240169364782,-0.0007156653904793416,0.02347851768569772,-0.00034511745010366916
2020-07-31 14:35:19.638,0.0437164306640625,-0.002166748046875,-0.9818115234375,-0.0002665824140422046,-0.006066680885851383,-0.004752411041408777,0.9997244341022612,-0.0007412789598549573,0.023459195283169813,-0.00034742933199795366
2020-07-31 14:35:19.647,0.0437164306640625,-0.002166748046875,-0.9818115234375,-0.0007858988246880472,-0.007029413711279631,-0.004205131437629461,0.9997249705420224,-0.000766410247688558,0.023438876352657456,-0.0003472860178087195
2020-07-31 14:35:19.659,0.0435028076171875,0.0027008056640625,-0.9805450439453125,0.00061279337387532,-0.003846936160698533,-0.005259742960333824,0.999725030113384,-0.0007862821653237293,0.023432378109915605,-0.0003484793407902507
2020-07-31 14:35:19.667,0.0466461181640625,0.004852294921875,-0.980712890625,-0.0024748756550252438,-0.006699181627482176,-0.005321528296917677,0.999725149271204,-0.000806135251944076,0.023429200962930302,-0.00035039784542947736
2020-07-31 14:35:19.678,0.04833984375,0.00592041015625,-0.979339599609375,-0.0016162724932655692,-0.006934338714927435,-0.0035984632559120655,0.9997249108821608,-0.0008164087016549859,0.023436854843806865,-0.0003493763268072387
2020-07-31 14:35:19.688,0.049591064453125,0.0059814453125,-0.9787139892578125,0.00105354655534029,-0.006001166999340057,-0.00341550400480628,0.9997245532919325,-0.000801777402423131,0.023451841299230666,-0.0003481193473330979
2020-07-31 14:35:19.698,0.049530029296875,0.004913330078125,-0.9784698486328125,0.0016924388473853469,-0.007152718026190996,-0.003925765864551067,0.9997243149207924,-0.0007737548604913548,0.02346639340376458,-0.000346479709775837
2020-07-31 14:35:19.708,0.0482940673828125,0.0019989013671875,-0.9798431396484375,-0.00046631949953734875,-0.008679508231580257,-0.004927114117890596,0.9997243148858782,-0.0007474876098442207,0.023468434167418784,-0.0003478073020417254
2020-07-31 14:35:19.717,0.0446319580078125,-0.0003814697265625,-0.98004150390625,0.0006647250265814364,-0.0084262415766716,-0.0046903593465685844,0.9997245532495561,-0.0007217224217818915,0.023458662048902117,-0.00034975382299872246
2020-07-31 14:35:19.728,0.04315185546875,-0.0006866455078125,-0.981170654296875,0.0005030711181461811,-0.0060264673084020615,-0.0033015208318829536,0.9997247917172905,-0.000702112155756641,0.023445073533411645,-0.00034772941931224244
2020-07-31 14:35:19.738,0.0442657470703125,-0.0010223388671875,-0.981048583984375,0.0005850964807905257,-0.0059811933897435665,-0.001654355670325458,0.9997253879383602,-0.0006999186964058419,0.023423925002277503,-0.0003408883757445783
2020-07-31 14:35:19.748,0.0453948974609375,-0.0016937255859375,-0.9809722900390625,-0.0011462245602160692,-0.003865312086418271,-0.005724730901420116,0.9997254474058467,-0.000710358113809268,0.02341984794853463,-0.0003460278550303923
2020-07-31 14:35:19.758,0.0474090576171875,-0.0002288818359375,-0.9792327880859375,-0.00041332258842885494,-0.007770038675516844,-0.003894074121490121,0.999725328103727,-0.0007293392286207714,0.023424043127976177,-0.0003495932223121723
2020-07-31 14:35:19.768,0.0479888916015625,0.003173828125,-0.9794158935546875,-0.0013587448047474027,-0.006246710661798716,-0.004378769546747208,0.9997248511755014,-0.0007531148630042234,0.023440945399523627,-0.0003532413526939243
2020-07-31 14:35:19.777,0.0486907958984375,0.0049591064453125,-0.978759765625,-0.0005488775204867125,-0.0070579093880951405,-0.004700479097664356,0.9997244933975671,-0.0007742037259739208,0.023458661575856344,-0.00035912576549672044
2020-07-31 14:35:19.787,0.0479888916015625,0.0048828125,-0.979217529296875,0.0004223773430567235,-0.009824933484196663,-0.0035595810040831566,0.9997243145149968,-0.0007870672492905312,0.02346599515037986,-0.0003618100690381327
2020-07-31 14:35:19.797,0.0479888916015625,0.0048828125,-0.979217529296875,0.0015299860388040543,-0.007873369380831718,-0.004763063509017229,0.999724135671016,-0.000785559291779144,0.023471506677461656,-0.00036300774457839367
2020-07-31 14:35:19.808,0.043548583984375,0.0044708251953125,-0.9813385009765625,0.0004394215648062527,-0.006731139495968819,-0.005191300064325333,0.9997243740101442,-0.000767221154726632,0.023462237669774472,-0.00036589149843560824
2020-07-31 14:35:19.817,0.044189453125,0.0008697509765625,-0.9814605712890625,0.0014154701493680477,-0.006453638430684805,-0.003984355367720127,0.9997247316371369,-0.0007533258041576541,0.023449724051816848,-0.0003657723818710863
2020-07-31 14:35:19.828,0.0453338623046875,-0.0015411376953125,-0.9811859130859375,0.002243979601189494,-0.004779309034347534,-0.005615274887531996,0.999724731522697,-0.0007348021546806139,0.02344720899054449,-0.0003700555869298699
2020-07-31 14:35:19.838,0.0467071533203125,-0.0026397705078125,-0.98028564453125,0.0019172097090631723,-0.007258711848407984,-0.004723382648080587,0.9997248506325198,-0.000713630546220162,0.023443797926816105,-0.0003737613743605733
2020-07-31 14:35:19.848,0.0479278564453125,-0.0025787353515625,-0.9795989990234375,9.161273919744417e-05,-0.007703193463385105,-0.004574245307594538,0.9997247313698334,-0.0007081884720357764,0.023448443219752525,-0.00037582881825335763
2020-07-31 14:35:19.858,0.0488739013671875,-0.0038299560546875,-0.979583740234375,-0.002516953507438302,-0.00782463327050209,-0.0043686493299901485,0.9997245525804814,-0.0007277017509609198,0.0234559650974341,-0.00037499802143006224
2020-07-31 14:35:19.868,0.0467376708984375,-0.001861572265625,-0.9800872802734375,-0.001847701147198677,-0.005928995553404093,-0.0036970002111047506,0.9997241950465859,-0.0007561648575909613,0.023470395762857667,-0.0003716309692282575
2020-07-31 14:35:19.878,0.0452423095703125,0.0020904541015625,-0.981170654296875,-0.0006514092092402279,-0.008562329225242138,-0.003855458227917552,0.9997240759056264,-0.0007776123562414197,0.02347432651189837,-0.0003691074085565118
2020-07-31 14:35:19.888,0.044219970703125,0.00439453125,-0.98162841796875,-0.001332645770162344,-0.007685083895921707,-0.004483697935938835,0.999724373887258,-0.0008001342035283875,0.023462449020115798,-0.00037055394206050645
2020-07-31 14:35:19.897,0.0445404052734375,0.0060882568359375,-0.9803619384765625,-0.0031963258516043425,-0.008507734164595604,-0.00561207951977849,0.9997247313244322,-0.0008249290248554933,0.02344523697292906,-0.00037757202783788847
2020-07-31 14:35:19.908,0.044586181640625,0.0058135986328125,-0.9802093505859375,0.0005278385360725224,-0.005016063805669546,-0.0041761030443012714,0.999724850448222,-0.0008222092203134364,0.023440554211082053,-0.00038074591932066965
2020-07-31 14:35:19.917,0.04742431640625,0.0058135986328125,-0.980377197265625,-0.0008665926288813353,-0.0059596216306090355,-0.004715126473456621,0.9997249100323581,-0.0008083223637478348,0.023439186661896854,-0.0003814969992235456
2020-07-31 14:35:19.927,0.048675537109375,0.0036773681640625,-0.9794921875,0.0001560612436151132,-0.007496798411011696,-0.004749215207993984,0.9997249100745401,-0.000781984494584047,0.023441737788403336,-0.00037991839940199
2020-07-31 14:35:19.937,0.0485992431640625,0.0025482177734375,-0.9795989990234375,-0.0006785734440200031,-0.0075718993321061134,-0.005714344792068005,0.99972467160492,-0.0007579132985310042,0.023448319739101817,-0.0003819088256893403
2020-07-31 14:35:19.948,0.0482025146484375,0.0005035400390625,-0.980316162109375,0.00034221619716845453,-0.007532751187682152,-0.003462375607341528,0.9997244333168602,-0.0007323943364422829,0.02346032567398162,-0.00037710315788049226
2020-07-31 14:35:19.957,0.0463104248046875,-0.0008697509765625,-0.9813385009765625,-0.0002300971100339666,-0.0075782909989356995,-0.005143629387021065,0.9997244333119666,-0.0007228286181080399,0.023459865347385332,-0.00037727734139065384
2020-07-31 14:35:19.967,0.0437164306640625,-0.0023956298828125,-0.980987548828125,0.00035686357296071947,-0.005784385837614536,-0.0033654365688562393,0.9997244929620112,-0.0007293615051932649,0.023457363987893116,-0.0003755373143096673
2020-07-31 14:35:19.977,0.0441741943359375,-0.0017242431640625,-0.9821319580078125,0.0003028014034498483,-0.005513009615242481,-0.004761998075991869,0.9997246717487983,-0.0007446604486703555,0.02345108541616703,-0.000376498797937614
2020-07-31 14:35:19.987,0.045166015625,-0.0012969970703125,-0.98236083984375,0.0016261261189356446,-0.007690676487982273,-0.006054962985217571,0.9997249100156858,-0.0007627892295383136,0.02343983551956594,-0.00038210874782430593
2020-07-31 14:35:19.997,0.046295166015625,0.00079345703125,-0.9813232421875,-0.0012522183824330568,-0.006421946454793215,-0.003972104750573635,0.9997250291852116,-0.0007900059861914088,0.023434708378078324,-0.00038356674483639493
2020-07-31 14:35:20.007,0.047882080078125,0.003082275390625,-0.97918701171875,3.1425301131093875e-05,-0.008580172434449196,-0.003866909770295024,0.9997249099955725,-0.000812478140513683,0.023439825659220533,-0.00038289613801074034
2020-07-31 14:35:20.017,0.0489654541015625,0.0034637451171875,-0.9796142578125,-0.0005779059720225632,-0.005949235521256924,-0.00407463638111949,0.9997244927738599,-0.000822478018733624,0.023456094266636078,-0.0003826815181328725
2020-07-31 14:35:20.027,0.047882080078125,0.00445556640625,-0.9802093505859375,-0.001413073274306953,-0.009608685038983822,-0.005025118589401245,0.9997243734722262,-0.0008288358113405909,0.023462546637769918,-0.00038624749270859326
2020-07-31 14:35:20.038,0.0458221435546875,0.0048370361328125,-0.9801483154296875,-0.0026442527305334806,-0.007384412921965122,-0.0037257622461766005,0.9997242542682191,-0.0008251412639399811,0.02346659779314346,-0.00038609265598873294
2020-07-31 14:35:20.047,0.043548583984375,0.00360107421875,-0.9801788330078125,0.0005600627628155053,-0.00848749466240406,-0.005563876125961542,0.9997244329292955,-0.0008066220495178005,0.023459243579913056,-0.00039177110346952756
2020-07-31 14:35:20.057,0.0423431396484375,0.0023956298828125,-0.9821624755859375,0.0009954896522685885,-0.005184642039239407,-0.004561462439596653,0.999724671279048,-0.0007827251423053833,0.023449858941053538,-0.00039424911913631626
2020-07-31 14:35:20.068,0.0439300537109375,0.001617431640625,-0.981689453125,0.0009142631897702813,-0.00538517814129591,-0.004384628497064114,0.9997247904543739,-0.0007622459706569948,0.023446533577296643,-0.0003954821289566024
2020-07-31 14:35:20.078,0.0455322265625,0.000396728515625,-0.98126220703125,0.0011134676169604063,-0.006213687360286713,-0.004071174189448357,0.999724850019151,-0.000743111778488045,0.023444147022314066,-0.0003969497435699203
2020-07-31 14:35:20.087,0.0477752685546875,-0.00091552734375,-0.979949951171875,0.00130920996889472,-0.005997971165925264,-0.004228833597153425,0.9997247903825279,-0.000734835666553511,0.023447479075373947,-0.00039819142522373784
2020-07-31 14:35:20.097,0.0490570068359375,0.000335693359375,-0.97894287109375,-0.00023302659974433482,-0.007808388210833073,-0.0037848844658583403,0.9997245519598548,-0.000743322951364687,0.02345309517521065,-0.000398415666430006
2020-07-31 14:35:20.107,0.0490264892578125,-0.00018310546875,-0.9797210693359375,0.0012982910266146064,-0.010776215232908726,-0.0032293491531163454,0.9997246711886292,-0.0007516156329153218,0.023452694926009623,-0.0003976796653638474
2020-07-31 14:35:20.117,0.0471038818359375,0.000244140625,-0.9803466796875,-0.0008263788768090308,-0.00905714463442564,-0.002918025478720665,0.9997246116323049,-0.000772903041161886,0.02345295067196751,-0.0003958694120475547
2020-07-31 14:35:20.128,0.0447235107421875,0.00103759765625,-0.9813079833984375,-0.00010599380766507238,-0.006389455869793892,-0.00523604080080986,0.9997246115135985,-0.0007915091910799744,0.023452403546964224,-0.0004003572283361202
2020-07-31 14:35:20.138,0.0430450439453125,0.0016937255859375,-0.98199462890625,-0.0003616572648752481,-0.007443268783390522,-0.004500742070376873,0.999724969113589,-0.0008016229985039999,0.023437243745937454,-0.0004012409498129142
2020-07-31 14:35:20.147,0.0425872802734375,0.002716064453125,-0.981597900390625,0.000609863898716867,-0.006057359743863344,-0.0044205812737345695,0.9997253862969379,-0.0008010754470229184,0.023419334398436048,-0.000402891002604547
2020-07-31 14:35:20.157,0.044708251953125,0.0020294189453125,-0.980865478515625,-5.9921123465755954e-05,-0.003996073268353939,-0.004493551794439554,0.999725326661975,-0.0007984823379367775,0.02341992665096932,-0.00040404156194153145
2020-07-31 14:35:20.168,0.0466766357421875,0.0012359619140625,-0.980255126953125,0.0011430287268012762,-0.007722900714725256,-0.0031316110398620367,0.9997253267557127,-0.0007910636224777156,0.023421204229064102,-0.000400511527001669
2020-07-31 14:35:20.178,0.0480194091796875,0.0025634765625,-0.9796600341796875,-0.0002671150432433933,-0.005133509170264006,-0.0029023129027336836,0.9997249096597135,-0.0007828214614856311,0.023439398328513526,-0.0003955605151130998
2020-07-31 14:35:20.188,0.0483245849609375,0.0009002685546875,-0.98004150390625,0.000624777574557811,-0.008361260406672955,-0.005085572600364685,0.9997245520195887,-0.0007763709536198948,0.023452324915040228,-0.0003961690354681789
2020-07-31 14:35:20.198,0.047119140625,0.0006561279296875,-0.981964111328125,-0.0007091998122632504,-0.007300789933651686,-0.0039292280562222,0.9997242540190631,-0.0007658552297283625,0.02346500366210055,-0.00039545210953375817
2020-07-31 14:35:20.208,0.04547119140625,0.0007781982421875,-0.9817657470703125,0.00020772656716872007,-0.007233412005007267,-0.004237355664372444,0.999724313605668,-0.0007602033221574134,0.023467268488933754,-0.00039615642204149506
2020-07-31 14:35:20.218,0.0447540283203125,0.0,-0.980560302734375,0.0006000102148391306,-0.007682953495532274,-0.004560397006571293,0.9997245519379131,-0.0007591167080542958,0.02345599386918177,-0.0003992866906351021
2020-07-31 14:35:20.228,0.0452728271484375,0.000732421875,-0.980926513671875,-0.0016306535108014941,-0.006835269276052713,-0.0033190976828336716,0.9997249095815884,-0.0007672181149256513,0.023440366490925124,-0.0003985138505991748
2020-07-31 14:35:20.238,0.0456695556640625,0.00201416015625,-0.97918701171875,-0.0014383733505383134,-0.006853112485259771,-0.005339371506124735,0.9997252075134,-0.0007797724347871274,0.023425871718875356,-0.0004018064079388005
2020-07-31 14:35:20.248,0.046905517578125,0.0024871826171875,-0.981414794921875,-0.0018013621447607875,-0.008342085406184196,-0.004830441437661648,0.9997254459224586,-0.000786403713310662,0.02341597752345142,-0.00040205554520712685
2020-07-31 14:35:20.258,0.047698974609375,0.00274658203125,-0.9797210693359375,0.0012146678054705262,-0.0076270271092653275,-0.0030149647500365973,0.9997254460524776,-0.0007834581072389533,0.023416314584161872,-0.00039714677590327064
2020-07-31 14:35:20.268,0.0476226806640625,0.0031585693359375,-0.9810333251953125,0.0006399576086550951,-0.010010556317865849,-0.0041494714096188545,0.9997254460677778,-0.0007888167240542877,0.02341777876509327,-0.0003965887406789237
2020-07-31 14:35:20.278,0.0462646484375,0.0030059814453125,-0.9802703857421875,-0.0003254382754676044,-0.005037635564804077,-0.0030719563364982605,0.9997250885464067,-0.0007819090515960182,0.023433016882053844,-0.0003927381466355051
2020-07-31 14:35:20.288,0.0453948974609375,0.0010986328125,-0.981201171875,0.0013307816116139293,-0.005870672408491373,-0.004512726329267025,0.9997249693439904,-0.0007724066708500631,0.02343666927760671,-0.0003925153798093424
2020-07-31 14:35:20.298,0.044036865234375,0.0015869140625,-0.981353759765625,0.0014229270163923502,-0.008523447439074516,-0.004202734678983688,0.9997252077795231,-0.0007626351599412764,0.023428501319937647,-0.00039177527286035624
2020-07-31 14:35:20.307,0.0445709228515625,0.0010528564453125,-0.9812469482421875,0.0023989754263311625,-0.006973220966756344,-0.004599279258400202,0.9997253865205931,-0.0007432062770293045,0.02342115080786925,-0.0003944317820727965
2020-07-31 14:35:20.318,0.046417236328125,0.0005950927734375,-0.9803924560546875,0.0009105347562581301,-0.0057593523524701595,-0.0037499971222132444,0.9997254461082213,-0.0007370293548403803,0.023416123365126232,-0.0003950130726383922
2020-07-31 14:35:20.328,0.0470123291015625,0.001190185546875,-0.9806976318359375,0.000526506919413805,-0.005861883983016014,-0.004622448701411486,0.9997253865165939,-0.0007387232975592524,0.023418954630578748,-0.0003945550063535791
2020-07-31 14:35:20.338,0.048675537109375,0.00067138671875,-0.9797821044921875,0.001478320686146617,-0.00782836228609085,-0.002784601179882884,0.9997253270652404,-0.0007422235247935969,0.023422436006923793,-0.0003888070866594076
2020-07-31 14:35:20.348,0.0489044189453125,0.00018310546875,-0.9805450439453125,0.0011906992876902223,-0.006322077941149473,-0.001773132593370974,0.9997250887785842,-0.000748381426459079,0.02343140480624423,-0.0003839311137108863
2020-07-31 14:35:20.357,0.0475311279296875,0.0008392333984375,-0.979248046875,0.0014596786350011826,-0.009128251112997532,-0.0028706213925033808,0.9997250888821742,-0.0007565685156001353,0.02343118150552411,-0.00038002037635515766
2020-07-31 14:35:20.368,0.0458526611328125,0.0014801025390625,-0.98040771484375,-0.0008548747282475233,-0.008553273975849152,-0.003424825146794319,0.9997253274150988,-0.0007680191178738016,0.023422764515208916,-0.0003756106321581079
2020-07-31 14:35:20.378,0.0451507568359375,0.0018157958984375,-0.9813995361328125,-0.0010543455136939883,-0.006427539046853781,-0.004285558592528105,0.9997255062031646,-0.0007728469679727958,0.023416522919162436,-0.00037651838691900015
2020-07-31 14:35:20.388,0.0445404052734375,0.0019683837890625,-0.9812469482421875,-0.0008665926288813353,-0.006791327148675919,-0.004707403481006622,0.99972562534878,-0.0007813513132780687,0.023406511426751587,-0.00037881273505724805
2020-07-31 14:35:20.398,0.04522705078125,0.0033111572265625,-0.980072021484375,0.0016492956783622503,-0.0059937103651463985,-0.0034522556234151125,0.9997257445868396,-0.0007756184181530594,0.02340298342504836,-0.0003776821109239798
2020-07-31 14:35:20.407,0.0454864501953125,0.003875732421875,-0.981475830078125,-0.0003818972909357399,-0.007896006107330322,-0.0047119311057031155,0.9997257445747791,-0.0007722777176689835,0.023404732360385188,-0.00037815594933623015
2020-07-31 14:35:20.418,0.0470733642578125,0.003875732421875,-0.9788665771484375,0.000461259507574141,-0.006558566819876432,-0.005577458068728447,0.9997255656888463,-0.0007644353414944829,0.023411292388993733,-0.0003809467665870867
2020-07-31 14:35:20.428,0.0470733642578125,0.0036468505859375,-0.9799957275390625,-0.0007323693134821951,-0.008494950830936432,-0.003023753175511956,0.9997253869475126,-0.000758279459270427,0.023420672506894977,-0.00037830931254395145
2020-07-31 14:35:20.438,0.0477294921875,0.0021209716796875,-0.98095703125,-0.0007219829712994397,-0.007654990069568157,-0.0034373418893665075,0.9997250889788895,-0.0007520808572613565,0.02343206800574011,-0.00037637500383706427
2020-07-31 14:35:20.448,0.0468292236328125,0.001312255859375,-0.9812774658203125,-0.0001459412305848673,-0.007544735446572304,-0.004959604702889919,0.9997250293268597,-0.0007468871646909137,0.023434157756115345,-0.00037818601557452314
2020-07-31 14:35:20.458,0.045654296875,0.0001678466796875,-0.9810028076171875,0.0020509003661572933,-0.007078149355947971,-0.0030514500103890896,0.9997251485888526,-0.0007365757694380878,0.023430715314858797,-0.000376149824368949
2020-07-31 14:35:20.468,0.045196533203125,0.000457763671875,-0.981842041015625,0.0015512913232669234,-0.005625128746032715,-0.004207261838018894,0.9997251485881005,-0.0007304266040776686,0.02343040222767855,-0.0003761711847079347
2020-07-31 14:35:20.478,0.0453338623046875,0.0004730224609375,-0.9810638427734375,0.001549959764815867,-0.005086903925985098,-0.005563077051192522,0.999725148533188,-0.0007291910825594967,0.023428396126196054,-0.00037822149098329643
2020-07-31 14:35:20.488,0.0467071533203125,0.0009765625,-0.9815826416015625,-0.0001174454009742476,-0.0073165022768080235,-0.0046240463852882385,0.9997253869569097,-0.0007385223294982581,0.0234204764060812,-0.00037794105575404636
2020-07-31 14:35:20.497,0.0470123291015625,0.001495361328125,-0.9802703857421875,0.0008506136364303529,-0.008107461035251617,-0.0029060414526611567,0.999725506215729,-0.0007493537074421212,0.023414654064107924,-0.00037600912095662857
2020-07-31 14:35:20.508,0.04620361328125,0.0016632080078125,-0.9811859130859375,0.0012934972764924169,-0.007259777281433344,-0.003719637170433998,0.9997253274036634,-0.0007604592055362601,0.02342123508341657,-0.00037602070283928636
2020-07-31 14:35:20.517,0.046234130859375,0.0007476806640625,-0.9808197021484375,-0.0005281048361212015,-0.008219313807785511,-0.0027379959356039762,0.9997253274856892,-0.0007737456676628621,0.02342196559201995,-0.0003729383202382159
2020-07-31 14:35:20.527,0.045745849609375,0.0005645751953125,-0.98150634765625,0.0008253136184066534,-0.00818229652941227,-0.004978246986865997,0.999725208188793,-0.0007747067709930629,0.02342713818307087,-0.0003763075803979839
2020-07-31 14:35:20.537,0.0451202392578125,0.001434326171875,-0.98089599609375,0.0004948153509758413,-0.00806325301527977,-0.0037438718136399984,0.9997252082251167,-0.000772937765790224,0.023427765847624238,-0.00037494182441368977
2020-07-31 14:35:20.547,0.04461669921875,0.000946044921875,-0.9810943603515625,0.0007760451408103108,-0.006145243998616934,-0.0033007217571139336,0.9997252082486636,-0.0007670646497442851,0.02342638360943536,-0.00037403320106578735
2020-07-31 14:35:20.558,0.0452728271484375,0.0014190673828125,-0.9808807373046875,-0.0029526466969400644,-0.007474161684513092,-0.005434979218989611,0.9997253869413975,-0.0007715689734567973,0.02341821230452433,-0.000378519358978615
2020-07-31 14:35:20.567,0.046661376953125,0.0013580322265625,-0.9794464111328125,0.00101120222825557,-0.006957241799682379,-0.003949201665818691,0.9997254465688572,-0.0007647822142241699,0.0234152263046738,-0.0003776193516873172
2020-07-31 14:35:20.578,0.0478363037109375,0.00164794921875,-0.981201171875,-0.0005171858938410878,-0.005569735076278448,-0.0032828785479068756,0.999725387026284,-0.0007645053877724697,0.023421501548764302,-0.00037534703929311726
2020-07-31 14:35:20.587,0.0472259521484375,0.00244140625,-0.980010986328125,-0.000711064029019326,-0.0068027786910533905,-0.00333241350017488,0.9997252678405408,-0.0007678100756342001,0.023425675824010846,-0.0003745076826239256
2020-07-31 14:35:20.598,0.0467376708984375,0.0022125244140625,-0.979705810546875,0.0014090784825384617,-0.007134342100471258,-0.0057249972596764565,0.9997252677426814,-0.0007619902422757865,0.02342558253772911,-0.00037819964721605794
2020-07-31 14:35:20.608,0.04595947265625,0.0024261474609375,-0.9809722900390625,-0.0011022823164239526,-0.008913333527743816,-0.00481446273624897,0.9997253868940545,-0.0007582797936465601,0.023421210811375725,-0.0003803347062803134
2020-07-31 14:35:20.618,0.0458221435546875,0.0019378662109375,-0.98052978515625,0.0023782027419656515,-0.006850981619209051,-0.003715642262250185,0.9997254465057972,-0.0007500826106330543,0.023417990080906902,-0.00038002486602872033
2020-07-31 14:35:20.627,0.0446319580078125,0.002227783203125,-0.9804534912109375,4.314320904086344e-05,-0.007178284227848053,-0.004537760280072689,0.9997255656831247,-0.000749820250060005,0.023412085488886836,-0.00038116384758301485
2020-07-31 14:35:20.637,0.0449981689453125,0.00103759765625,-0.9820098876953125,-0.0008602010202594101,-0.005910086911171675,-0.004069842863827944,0.9997255656557367,-0.0007468550016206739,0.023411152225188105,-0.0003821859149971367
2020-07-31 14:35:20.647,0.0450592041015625,0.00054931640625,-0.9823455810546875,-0.0008245146600529552,-0.007032609544694424,-0.004793956410139799,0.9997255655965137,-0.0007481066795236442,0.023411867514088556,-0.00038443179972966055
2020-07-31 14:35:20.658,0.045928955078125,0.0001220703125,-0.9806060791015625,-0.0001328917423961684,-0.007408381439745426,-0.003976631909608841,0.9997253868263538,-0.0007510885543676116,0.023420195479430805,-0.00038287613785603126
2020-07-31 14:35:20.668,0.0471038818359375,0.0002288818359375,-0.980743408203125,-0.0030213561840355396,-0.005447496194392443,-0.005691441707313061,0.9997249695393848,-0.0007655344166757778,0.02343549935441405,-0.00038511770798686204
2020-07-31 14:35:20.678,0.0465850830078125,0.0001068115234375,-0.981048583984375,0.00022796659322921187,-0.006828344892710447,-0.0038253646343946457,0.9997249099478208,-0.0007745222646261196,0.023441981597423455,-0.00038470341603483204
2020-07-31 14:35:20.687,0.0461883544921875,0.001129150390625,-0.9794464111328125,-0.000883636821527034,-0.006062153726816177,-0.0037060549948364496,0.9997247311989224,-0.0007822958874574966,0.023444593231717704,-0.00038228145110170693
2020-07-31 14:35:20.697,0.045806884765625,0.002288818359375,-0.9806671142578125,0.0007536745979450643,-0.008224906399846077,-0.0027118970174342394,0.9997249101825129,-0.0007846307919563353,0.023439491508379345,-0.00037581569152163015
2020-07-31 14:35:20.707,0.0455169677734375,0.0019989013671875,-0.980621337890625,-0.001100684516131878,-0.007387875113636255,-0.0036671727430075407,0.9997249698373826,-0.0007869617971001986,0.02343651506313196,-0.0003738855860507395
2020-07-31 14:35:20.717,0.045166015625,0.002288818359375,-0.981170654296875,-0.0010282464791089296,-0.004790227860212326,-0.003707652911543846,0.9997250294530889,-0.0007923832481715962,0.023432516107550826,-0.0003734246719855081
2020-07-31 14:35:20.727,0.04656982421875,0.0034942626953125,-0.9794464111328125,0.0009954896522685885,-0.006169745232909918,-0.00583631731569767,0.9997252081754529,-0.0007854476287725874,0.02342815733432757,-0.00037682921160824386
2020-07-31 14:35:20.737,0.046966552734375,0.0025634765625,-0.9810333251953125,0.0012546151410788298,-0.007968977093696594,-0.004268514458090067,0.9997253273635904,-0.000776287534891007,0.02342202898931858,-0.00037755232582166985
2020-07-31 14:35:20.747,0.047393798828125,0.0030975341796875,-0.9793853759765625,0.0026754115242511034,-0.006564692128449678,-0.004007258452475071,0.9997252676858795,-0.000763028763893052,0.023424094311798545,-0.0003803285636229685
2020-07-31 14:35:20.758,0.0467071533203125,0.0037994384765625,-0.9801025390625,-0.0007874967413954437,-0.005868807900696993,-0.003978762775659561,0.9997251484282201,-0.0007563391770877684,0.02343116846095108,-0.0003822334331040854
2020-07-31 14:35:20.767,0.04681396484375,0.0033721923828125,-0.98016357421875,-0.0012511530658230186,-0.006975085008889437,-0.005097024142742157,0.9997251484058056,-0.0007511095538005668,0.02343169731372567,-0.0003830832342350445
2020-07-31 14:35:20.777,0.04669189453125,0.002716064453125,-0.9808349609375,0.0018322548130527139,-0.007836883887648582,-0.003316967049613595,0.9997252081078281,-0.0007448406633084637,0.0234289255317337,-0.0003793696434276871
2020-07-31 14:35:20.787,0.045623779296875,0.001556396484375,-0.9810028076171875,0.00046392265358008444,-0.0070091737434268,-0.003102582646533847,0.9997252677850946,-0.000747999056569256,0.023427234333517163,-0.0003766088566716436
2020-07-31 14:35:20.797,0.0455169677734375,0.00103759765625,-0.9813690185546875,0.0007776430575177073,-0.007708786055445671,-0.003323625074699521,0.9997252678513876,-0.0007489407319131965,0.023423175654677136,-0.0003740586048029243
2020-07-31 14:35:20.808,0.045928955078125,0.001708984375,-0.98126220703125,0.001612011343240738,-0.006620352156460285,-0.0037859496660530567,0.9997253870966608,-0.0007524332623173041,0.023420517752487796,-0.0003726707056146281
2020-07-31 14:35:20.818,0.046875,0.0016326904296875,-0.980072021484375,0.0007669904152862728,-0.00734260119497776,-0.005800365004688501,0.9997252677795132,-0.0007619882063101108,0.023423351088791323,-0.0003767827272801115
2020-07-31 14:35:20.827,0.04718017578125,0.002349853515625,-0.98077392578125,0.003173955250531435,-0.008087487891316414,-0.005819805897772312,0.9997252080125728,-0.0007588705531853773,0.02342520061297252,-0.00038293248043825824
2020-07-31 14:35:20.838,0.04681396484375,0.0021209716796875,-0.980865478515625,0.0012056130217388272,-0.006148706190288067,-0.0038107172586023808,0.9997249695954737,-0.0007627669402938052,0.023437464371723685,-0.00038302025228549325
2020-07-31 14:35:20.848,0.04541015625,0.0004119873046875,-0.9811553955078125,0.001404284848831594,-0.005951365921646357,-0.004559864290058613,0.9997247907379979,-0.0007682314956771701,0.02344327596927593,-0.00038473501769893144
2020-07-31 14:35:20.858,0.0450592041015625,0.0004425048828125,-0.981231689453125,0.0005608617211692035,-0.006291984114795923,-0.003644536016508937,0.9997247311679011,-0.0007724488095248739,0.023445706832820146,-0.000383460502444508
2020-07-31 14:35:20.868,0.0457611083984375,0.00091552734375,-0.9812774658203125,0.00032650353386998177,-0.008382299914956093,-0.0030365362763404846,0.9997247312718258,-0.0007749796064290955,0.023444080810568146,-0.00037951777827376494
2020-07-31 14:35:20.878,0.045501708984375,-0.0007781982421875,-0.981719970703125,0.003564907470718026,-0.006185990758240223,-0.00410419749096036,0.9997247312162949,-0.0007630935679916262,0.023445348957248445,-0.0003816232330077874
2020-07-31 14:35:20.888,0.046173095703125,-0.00018310546875,-0.9814453125,0.0003456783015280962,-0.006147907115519047,-0.004369981121271849,0.9997247312002174,-0.000758376159659835,0.02344635093544287,-0.00038223941784388724
2020-07-31 14:35:20.898,0.046783447265625,0.0010986328125,-0.98065185546875,0.00022690132027491927,-0.004809402395039797,-0.004406199790537357,0.999724671604665,-0.0007576006758483067,0.023450115320728607,-0.0003819389771353212
2020-07-31 14:35:20.908,0.047760009765625,0.00238037109375,-0.980316162109375,-0.00040000680019147694,-0.006448311731219292,-0.003493002150207758,0.9997244928833384,-0.0007554782779738482,0.023457889945304882,-0.0003785295743575736
2020-07-31 14:35:20.918,0.047760009765625,0.0021820068359375,-0.9806365966796875,0.0003755057114176452,-0.006795055698603392,-0.0034000577870756388,0.9997243738085425,-0.000756809751463202,0.023463354981322133,-0.000373513351786539
2020-07-31 14:35:20.928,0.0467681884765625,0.001861572265625,-0.9809722900390625,0.0012402341235429049,-0.008158859796822071,-0.005511145573109388,0.9997243737318988,-0.0007545604169636675,0.023461723244681817,-0.0003763882274612641
2020-07-31 14:35:20.938,0.0463104248046875,0.0015411376953125,-0.9803314208984375,-0.00014807176194153726,-0.007966313511133194,-0.005846437532454729,0.9997246120244003,-0.0007467411393573273,0.023453244277041825,-0.0003810481330607721
2020-07-31 14:35:20.948,0.045196533203125,0.000579833984375,-0.982025146484375,3.462109361862531e-06,-0.0073327478021383286,-0.0033481260761618614,0.9997247313175859,-0.0007418519305555765,0.023446616856151452,-0.00037780006007207364
2020-07-31 14:35:20.958,0.045440673828125,3.0517578125e-05,-0.9827728271484375,-0.0013009541435167193,-0.005798234138637781,-0.003326021833345294,0.9997248505757251,-0.000740085977486321,0.02344409478783088,-0.0003759248156416907
2020-07-31 14:35:20.968,0.045196533203125,-0.000152587890625,-0.98138427734375,0.0005933523061685264,-0.005061870440840721,-0.005184642039239407,0.999724850426522,-0.0007250680462462087,0.023444243401924834,-0.00038155375373104836
2020-07-31 14:35:20.978,0.0461883544921875,1.52587890625e-05,-0.981048583984375,0.0018636800814419985,-0.008012386038899422,-0.006490389816462994,0.9997249098534415,-0.0007155329606464023,0.0234409239159467,-0.00038822306973786743
2020-07-31 14:35:20.988,0.046783447265625,-4.57763671875e-05,-0.98095703125,0.0004703142330981791,-0.007908789440989494,-0.0032858080230653286,0.999724969534061,-0.0007151572369340616,0.023438504329917502,-0.0003853252610817644
2020-07-31 14:35:20.998,0.046417236328125,-0.0002899169921875,-0.9796600341796875,-0.001201884588226676,-0.008702411316335201,-0.005297826137393713,0.9997249098305394,-0.0007274000712205898,0.023440013396673752,-0.0003890842557062234
2020-07-31 14:35:21.007,0.046173095703125,0.000396728515625,-0.98199462890625,-0.0004721784498542547,-0.00737349409610033,-0.005599828902631998,0.9997246712651671,-0.0007361167222290077,0.023448905895442837,-0.0003947363612474105
2020-07-31 14:35:21.017,0.0464324951171875,0.0009765625,-0.9814910888671875,0.001186970854178071,-0.006520483642816544,-0.005219529382884502,0.9997246115726873,-0.0007380360768011644,0.023452690841225084,-0.00039809875479433944
2020-07-31 14:35:21.027,0.0472564697265625,0.0025177001953125,-0.9813232421875,0.00013448962999973446,-0.006214220076799393,-0.0044168527238070965,0.9997245519597244,-0.0007397932351110642,0.02345543456404216,-0.00039844558405532704
2020-07-31 14:35:21.038,0.04736328125,0.0037078857421875,-0.9799652099609375,0.0006135923322290182,-0.008541024290025234,-0.004750014282763004,0.9997247903297317,-0.0007339538795209457,0.023445227114098504,-0.0004001591640447209
2020-07-31 14:35:21.047,0.0482330322265625,0.0030670166015625,-0.9798431396484375,6.950850365683436e-05,-0.00752023421227932,-0.0054847802966833115,0.9997249094577274,-0.0007300334797741389,0.0234384991361129,-0.0004031499338923303
2020-07-31 14:35:21.057,0.0477447509765625,0.00286865234375,-0.980316162109375,0.0015582155901938677,-0.00842810608446598,-0.0065620290115475655,0.9997251477563889,-0.0007220781232837957,0.02342962155880939,-0.00040757249772174764
2020-07-31 14:35:21.067,0.0467681884765625,0.0013885498046875,-0.9812774658203125,0.0011667308863252401,-0.008469118736684322,-0.005254949443042278,0.999725266881046,-0.0007104334316373942,0.023423608632054126,-0.000410693301113929
2020-07-31 14:35:21.077,0.047119140625,-0.0015716552734375,-0.981781005859375,-0.0010522148804739118,-0.006368949543684721,-0.004504204262048006,0.9997252668496176,-0.0007053329642873751,0.023424392670635688,-0.00041188658568335856
2020-07-31 14:35:21.087,0.045257568359375,-0.0017852783203125,-0.9813079833984375,-0.001418665866367519,-0.007022755686193705,-0.005210208240896463,0.9997252668034841,-0.0007002572255439733,0.023423336416493766,-0.0004136141001928672
2020-07-31 14:35:21.097,0.045013427734375,-0.0005035400390625,-0.980712890625,-0.0006870955694466829,-0.005616873037070036,-0.0038362834602594376,0.9997251476071244,-0.0006971923838900219,0.023426813893835087,-0.000413164150836506
2020-07-31 14:35:21.107,0.045013427734375,-0.0006561279296875,-0.9806365966796875,-0.0023180153220891953,-0.006183327175676823,-0.00452870549634099,0.9997251475871034,-0.0007022340114420459,0.02342789808678786,-0.0004139356948952557
2020-07-31 14:35:21.117,0.0450286865234375,0.0008087158203125,-0.98138427734375,-0.003564641112461686,-0.004801945760846138,-0.005525260232388973,0.9997249687181351,-0.0007235287127446021,0.023436256339339604,-0.0004161227620577561
2020-07-31 14:35:21.127,0.044677734375,0.003875732421875,-0.981842041015625,0.0032898029312491417,-0.008057127706706524,-0.003706853836774826,0.9997249091801241,-0.0007259592247998645,0.02344094654410047,-0.0004136613629292412
2020-07-31 14:35:21.137,0.045074462890625,0.0054931640625,-0.980865478515625,0.000592020689509809,-0.007667507044970989,-0.003451456781476736,0.9997246707732751,-0.0007321890057201849,0.02345013513751628,-0.0004133278284897193
2020-07-31 14:35:21.147,0.045867919921875,0.0073089599609375,-0.9804229736328125,0.0037918086163699627,-0.0062637547962367535,-0.003069825703278184,0.9997244919866539,-0.0007284935554435555,0.023459716486256634,-0.0004124046489950885
2020-07-31 14:35:21.157,0.045654296875,0.0059814453125,-0.9803314208984375,-8.948221511673182e-05,-0.008798019029200077,-0.004715126473456621,0.9997245515533172,-0.0007250098268285192,0.023457507296906235,-0.0004138118197277365
2020-07-31 14:35:21.167,0.047027587890625,0.0048980712890625,-0.9809722900390625,0.0015590144321322441,-0.006707170978188515,-0.0032139027025550604,0.999724492029969,-0.000701231054592259,0.023460183288384694,-0.0004107587026593063
2020-07-31 14:35:21.177,0.048065185546875,0.0018768310546875,-0.980010986328125,0.002403502818197012,-0.007781756576150656,-0.004236556589603424,0.9997247304596905,-0.0006735861831033505,0.023449815073625497,-0.0004102027302203457
2020-07-31 14:35:21.187,0.047576904296875,-0.0015411376953125,-0.9810943603515625,0.002700977958738804,-0.008418251760303974,-0.0041249701753258705,0.9997249688730165,-0.0006508888356701697,0.023439841870628315,-0.0004102733647477209
2020-07-31 14:35:21.197,0.0464630126953125,-0.0034027099609375,-0.980499267578125,0.0015374429058283567,-0.005979862064123154,-0.004485828336328268,0.9997250284472693,-0.0006352578752885329,0.023437317572649042,-0.0004113834398796245
2020-07-31 14:35:21.207,0.0445556640625,-0.0034637451171875,-0.9812164306640625,-0.0010135991033166647,-0.008371113799512386,-0.0022149509750306606,0.9997252073839451,-0.0006387072442567742,0.023429218882831535,-0.0004066557905214055
2020-07-31 14:35:21.217,0.0452728271484375,-0.00262451171875,-0.9823760986328125,-0.0005901564727537334,-0.008529571816325188,-0.004278368316590786,0.9997254457377238,-0.0006590418998179123,0.02341660186305845,-0.0004089692084740257
2020-07-31 14:35:21.227,0.0457916259765625,-0.0014801025390625,-0.9826812744140625,-0.0019209380261600018,-0.006216350477188826,-0.004174771253019571,0.9997255052657733,-0.000689899821089007,0.023412046650063762,-0.00041182704103111424
2020-07-31 14:35:21.237,0.0458526611328125,0.0026702880859375,-0.9818115234375,-0.00014700648898724467,-0.005455751903355122,-0.003975034225732088,0.9997255051925176,-0.0007230798374353918,0.02341345010032716,-0.00041462876044632565
2020-07-31 14:35:21.247,0.0465545654296875,0.0056304931640625,-0.98175048828125,0.0027502465527504683,-0.00663553224876523,-0.0052056810818612576,0.9997255050279666,-0.0007377963966187763,0.023412137325225017,-0.00042083719399441897
2020-07-31 14:35:21.257,0.0461578369140625,0.005523681640625,-0.98089599609375,0.0008660599705763161,-0.006187854800373316,-0.004034422803670168,0.9997252665770987,-0.0007528465660967087,0.023421035579545325,-0.0004221679065680198
2020-07-31 14:35:21.267,0.0475921630859375,0.0049591064453125,-0.98138427734375,0.0006623281515203416,-0.007823302410542965,-0.004569451790302992,0.9997250877293038,-0.0007483662953041118,0.023428642503706177,-0.00042353214238966555
2020-07-31 14:35:21.277,0.04766845703125,0.0029296875,-0.9812164306640625,0.003132410114631057,-0.007740211207419634,-0.002951581496745348,0.9997250282037625,-0.0007195590200269749,0.023435770083912004,-0.0004206103693057035
2020-07-31 14:35:21.287,0.0471649169921875,-0.0002593994140625,-0.9817047119140625,0.002234125742688775,-0.004817658569663763,-0.0030277478508651257,0.9997248494899448,-0.0006854822186755698,0.023440202277131603,-0.00041686093677678225
2020-07-31 14:35:21.297,0.047088623046875,-0.002655029296875,-0.981903076171875,0.0012650014832615852,-0.006119411438703537,-0.003275688039138913,0.9997250879938995,-0.0006563825329691156,0.02343100562760012,-0.0004135137610508055
2020-07-31 14:35:21.307,0.0472412109375,-0.0046539306640625,-0.9814300537109375,0.0006250438746064901,-0.007139934692531824,-0.005013667047023773,0.999725266768014,-0.000636913286794503,0.023426825336452368,-0.00041495864865316194
2020-07-31 14:35:21.317,0.04742431640625,-0.004608154296875,-0.980804443359375,-0.0017867147689685225,-0.00821105856448412,-0.0034416031558066607,0.9997252668821236,-0.0006345821766279179,0.023425046448575165,-0.0004106267465845774
2020-07-31 14:35:21.327,0.04718017578125,-0.00347900390625,-0.9808197021484375,-0.0034791536163538694,-0.008241417817771435,-0.004334028344601393,0.9997252669447324,-0.0006599331648849543,0.023423607295023734,-0.0004082595070113234
2020-07-31 14:35:21.338,0.0479888916015625,-0.001312255859375,-0.9815826416015625,-0.002838397165760398,-0.008079231716692448,-0.0025331987999379635,0.9997253266640057,-0.0006948518019563338,0.02342448366262256,-0.00040395942833769627
2020-07-31 14:35:21.347,0.04632568359375,0.0037994384765625,-0.9817657470703125,-0.0041489386931061745,-0.00603339122608304,-0.004945756401866674,0.9997252073414705,-0.0007275070041641077,0.023426393738525068,-0.0004082772211466524
2020-07-31 14:35:21.358,0.0451812744140625,0.007598876953125,-0.98175048828125,-0.0005089300684630871,-0.006265086587518454,-0.005864813458174467,0.9997249687542126,-0.000751685436600655,0.02343662775114924,-0.00041478009454890555
2020-07-31 14:35:21.368,0.0444488525390625,0.008758544921875,-0.9815521240234375,0.00036618465674109757,-0.007124754600226879,-0.004865062423050404,0.9997247898914663,-0.0007585179979310455,0.023444275953018547,-0.00041671587483849154
2020-07-31 14:35:21.377,0.0439605712890625,0.0084991455078125,-0.9825592041015625,0.001106809708289802,-0.006206230726093054,-0.00509782275184989,0.9997247302390009,-0.00074352156899717,0.023447971043966828,-0.0004185563657399394
2020-07-31 14:35:21.387,0.045257568359375,0.007568359375,-0.9819183349609375,0.0022144184913486242,-0.0054570832289755344,-0.003777960315346718,0.9997245514355435,-0.0007101610696446512,0.023454617941257815,-0.00041821868808785567
2020-07-31 14:35:21.398,0.0464630126953125,0.00421142578125,-0.9808349609375,0.0014269216917455196,-0.006072273477911949,-0.005683984607458115,0.9997243128339971,-0.0006679465943220472,0.02346371025731921,-0.0004252109512485031
2020-07-31 14:35:21.407,0.047943115234375,0.0013275146484375,-0.980712890625,0.002808836055919528,-0.008765261620283127,-0.004491953644901514,0.9997243127008262,-0.0006253184303898519,0.02346428654880261,-0.0004302238110283899
2020-07-31 14:35:21.417,0.0484161376953125,-0.002227783203125,-0.9803619384765625,0.0020029633305966854,-0.008211856707930565,-0.00395772373303771,0.9997244319081218,-0.0005920952902348562,0.023464743879886053,-0.0004302857660910982
2020-07-31 14:35:21.427,0.047607421875,-0.004180908203125,-0.979949951171875,-0.0007384945638477802,-0.005998237524181604,-0.0016386429779231548,0.9997240744721081,-0.0005818520278366244,0.023475621456244593,-0.00042315895293987537
2020-07-31 14:35:21.437,0.04669189453125,-0.0045928955078125,-0.980682373046875,0.0006330333999358118,-0.007336209993809462,-0.002787530655041337,0.9997241937567407,-0.0005979148588061888,0.02347051450848873,-0.0004202631881873132
2020-07-31 14:35:21.447,0.0462188720703125,-0.0028076171875,-0.981109619140625,-0.0011555455857887864,-0.006771087180823088,-0.0037023264449089766,0.9997243726310012,-0.0006381300687467017,0.023463826814443787,-0.00041792989302882216
2020-07-31 14:35:21.458,0.04534912109375,-0.001617431640625,-0.9822235107421875,-0.0013614079216495156,-0.00714739179238677,-0.00574896577745676,0.9997246110089092,-0.000683296282211602,0.023451392991295318,-0.000419347910121377
2020-07-31 14:35:21.467,0.04541015625,0.0018768310546875,-0.9818572998046875,-0.0026264095213264227,-0.006067213602364063,-0.003498594742268324,0.9997248494827471,-0.0007286727214954979,0.023439765698999287,-0.0004171519300598275
2020-07-31 14:35:21.478,0.0455322265625,0.0048980712890625,-0.9810791015625,-0.0016077503096312284,-0.006521282717585564,-0.003816842334344983,0.9997249090591984,-0.0007624806631366205,0.023435309284271094,-0.00041818434218828367
2020-07-31 14:35:21.487,0.04754638671875,0.0060272216796875,-0.9808349609375,0.00029534456552937627,-0.005692773032933474,-0.004451473709195852,0.9997248494515525,-0.0007726965147913885,0.023439710985192996,-0.00041835419361578997
2020-07-31 14:35:21.497,0.0481719970703125,0.0062713623046875,-0.98065185546875,-0.00040000680019147694,-0.006617156323045492,-0.004041346721351147,0.9997246110844782,-0.0007698646458724642,0.0234488304208096,-0.00041651243772798424
2020-07-31 14:35:21.507,0.0475921630859375,0.0056610107421875,-0.98040771484375,0.001130245509557426,-0.006857106927782297,-0.005489573813974857,0.9997243726151934,-0.0007468546304409829,0.02345993117668303,-0.0004185428820387432
2020-07-31 14:35:21.517,0.045257568359375,0.0045623779296875,-0.9811859130859375,0.00028069718973711133,-0.0073503246530890465,-0.0028133634477853775,0.9997241939572893,-0.0007157804822128219,0.02346836999903679,-0.0004127293776326026
2020-07-31 14:35:21.527,0.0452728271484375,0.002044677734375,-0.9817047119140625,0.0011595403775572777,-0.007558850105851889,-0.0049129994586110115,0.9997243131196445,-0.000679764852271967,0.023467949950358946,-0.00041447711300673815
2020-07-31 14:35:21.537,0.0446014404296875,-0.00042724609375,-0.9808807373046875,-0.001284708851017058,-0.005914880894124508,-0.005732720717787743,0.9997243130083872,-0.0006601281439293867,0.023468087266278758,-0.000418670066709381
2020-07-31 14:35:21.547,0.045013427734375,-0.0026397705078125,-0.980377197265625,0.00018429075134918094,-0.005914614535868168,-0.005870139691978693,0.999724253306479,-0.0006488538255782126,0.023466542835052707,-0.00042231976931875686
2020-07-31 14:35:21.557,0.046142578125,-0.0041656494140625,-0.9811859130859375,-0.0014713965356349945,-0.007708253338932991,-0.004676776938140392,0.9997243725475246,-0.0006605398418302931,0.023461648112989647,-0.00042107034868811853
2020-07-31 14:35:21.567,0.04742431640625,-0.003509521484375,-0.9803314208984375,-0.0020607539918273687,-0.007159642409533262,-0.004500475712120533,0.9997244918293547,-0.0006888204256729554,0.02345786210409612,-0.00041830249897857456
2020-07-31 14:35:21.577,0.04705810546875,-0.00189208984375,-0.9808807373046875,-0.0011848403373733163,-0.007926632650196552,-0.0060208747163414955,0.9997243725235149,-0.0007213809936233743,0.023461547278290765,-0.00042201010083052124
2020-07-31 14:35:21.587,0.0469512939453125,0.0016632080078125,-0.9821014404296875,-0.0004849616379942745,-0.006943926215171814,-0.00571833923459053,0.9997240743697391,-0.0007494267344276186,0.023474320178608177,-0.00042710431931699324
2020-07-31 14:35:21.597,0.0451812744140625,0.003692626953125,-0.98095703125,-0.00042557314736768603,-0.007507450878620148,-0.005422462243586779,0.9997238358343123,-0.0007766302864989915,0.02348422458310575,-0.0004316473417286523
2020-07-31 14:35:21.607,0.0444488525390625,0.004547119140625,-0.98162841796875,-0.0006253102328628302,-0.005887716542929411,-0.004424309358000755,0.9997237762368361,-0.0007967034335934318,0.023484128257009917,-0.0004313867214805403
2020-07-31 14:35:21.617,0.0441741943359375,0.0048980712890625,-0.981109619140625,0.0009555422002449632,-0.006567088887095451,-0.0037505298387259245,0.999723895543472,-0.0007945582361211369,0.023480240859742926,-0.0004276637329893026
2020-07-31 14:35:21.627,0.0442657470703125,0.0057373046875,-0.9808807373046875,0.000934236915782094,-0.0052259210497140884,-0.0031816784758120775,0.9997238957036721,-0.000777221633637914,0.023481555428126973,-0.000421618192778516
2020-07-31 14:35:21.637,0.046661376953125,0.0047607421875,-0.9804840087890625,-0.0008370315190404654,-0.005809952039271593,-0.005601426586508751,0.9997238360844153,-0.000752665250600442,0.023484743626482046,-0.0004221931589252523
2020-07-31 14:35:21.647,0.0477142333984375,0.0026397705078125,-0.9814605712890625,0.002017610939219594,-0.00583738274872303,-0.003352387109771371,0.999723776562603,-0.0007150686548196405,0.02348830773385874,-0.00041908453662199376
2020-07-31 14:35:21.657,0.047515869140625,0.0011138916015625,-0.9802703857421875,0.000601075473241508,-0.0052376389503479,-0.003525492735207081,0.9997235977719056,-0.0006862657125745502,0.023498838366895685,-0.0004183122237048561
2020-07-31 14:35:21.667,0.0482330322265625,0.0012969970703125,-0.9810943603515625,0.0008250473183579743,-0.0060933125205338,-0.0043625240214169025,0.9997234189175279,-0.0006680813083966419,0.02350473129472554,-0.00041989767358147
2020-07-31 14:35:21.677,0.047149658203125,-0.0002899169921875,-0.9804534912109375,0.0021113541442900896,-0.0060416474007070065,-0.004429635591804981,0.999723359310739,-0.0006630705484743331,0.023507370530231334,-0.0004200063150326705
2020-07-31 14:35:21.687,0.0462493896484375,-0.00018310546875,-0.98187255859375,-0.0021960425656288862,-0.008947156369686127,-0.004837365821003914,0.9997236572878678,-0.0006809276898988951,0.02349337508744271,-0.00042159589246911785
2020-07-31 14:35:21.697,0.04461669921875,-0.000518798828125,-0.9802093505859375,1.4647385796706658e-05,-0.007244863547384739,-0.004276237916201353,0.9997238360836528,-0.0006977060498662527,0.023484501890215927,-0.00042218842733287855
2020-07-31 14:35:21.707,0.0459136962890625,0.000579833984375,-0.9825897216796875,0.00028309403569437563,-0.0073292856104671955,-0.0033726270776242018,0.9997241937445794,-0.0007162755750017596,0.023473488561075,-0.0004208230364430825
2020-07-31 14:35:21.717,0.046875,0.0019378662109375,-0.981170654296875,0.0005270395777188241,-0.006020075641572475,-0.003576625371351838,0.9997243725657181,-0.0007343118049188375,0.023464535303395637,-0.0004204577064357663
2020-07-31 14:35:21.727,0.04754638671875,0.002410888671875,-0.9811553955078125,-0.0014689996605738997,-0.007889348082244396,-0.004761199466884136,0.9997241937433955,-0.0007507183989131643,0.023470814714545832,-0.00042085619625830073
2020-07-31 14:35:21.737,0.047393798828125,0.0032196044921875,-0.98114013671875,0.0001715075777610764,-0.006198773626238108,-0.004336158744990826,0.9997238361823052,-0.0007540781644584413,0.02348769781900707,-0.00041853055871019645
2020-07-31 14:35:21.747,0.0461883544921875,0.003692626953125,-0.9810028076171875,-0.00024208133982028812,-0.006811034400016069,-0.004467452876269817,0.9997236573992049,-0.0007520727906907228,0.023494436816024998,-0.00041744256478365937
2020-07-31 14:35:21.757,0.0450592041015625,0.002655029296875,-0.980926513671875,0.0006117281154729426,-0.008915730752050877,-0.004655738361179829,0.999723597767374,-0.0007453409409580707,0.02349728089694303,-0.0004184984771685429
2020-07-31 14:35:21.767,0.045135498046875,0.001220703125,-0.981414794921875,0.0010109359864145517,-0.005952697712928057,-0.004533499013632536,0.9997234189416601,-0.0007326241735406124,0.023504757217871288,-0.00041902257021459534
2020-07-31 14:35:21.777,0.0447845458984375,0.00103759765625,-0.9820556640625,0.0004183826094958931,-0.005517270881682634,-0.005113535560667515,0.9997233592550161,-0.0007253615211111535,0.02350784342863362,-0.00042215134452499404
2020-07-31 14:35:21.787,0.04559326171875,-0.000396728515625,-0.982269287109375,-0.00018482338055036962,-0.005100485868752003,-0.005849100649356842,0.9997234187733853,-0.0007158427084129658,0.02350331881163735,-0.00042535258995239866
2020-07-31 14:35:21.797,0.0459442138671875,-0.0013427734375,-0.98028564453125,-0.00014168016787152737,-0.006856041960418224,-0.003919374197721481,0.9997234188550744,-0.0007111610780963156,0.023502908905717303,-0.0004222597245048808
2020-07-31 14:35:21.807,0.0467529296875,-1.52587890625e-05,-0.9812774658203125,-0.0009387642494402826,-0.006485596299171448,-0.004756139125674963,0.9997233592218419,-0.0007140861750542378,0.023507768624332244,-0.00042339721784333473
2020-07-31 14:35:21.817,0.046722412109375,0.0015716552734375,-0.9814605712890625,-0.00037284253630787134,-0.007089600898325443,-0.004328968469053507,0.9997232996460576,-0.0007175824422399043,0.02351126862709337,-0.00042234945029329617
2020-07-31 14:35:21.827,0.047637939453125,0.0030364990234375,-0.9807891845703125,0.0010756507981568575,-0.007525560446083546,-0.004400340840220451,0.9997232400497253,-0.0007223665947932917,0.023511017296675096,-0.00042203527433335954
2020-07-31 14:35:21.837,0.0473480224609375,0.002593994140625,-0.979949951171875,0.001555818715132773,-0.008679241873323917,-0.0044381581246852875,0.9997234188064973,-0.0007320789079721812,0.02350379980391527,-0.00042411652613301545
2020-07-31 14:35:21.847,0.046173095703125,0.00396728515625,-0.9804534912109375,0.002113218419253826,-0.0064951833337545395,-0.003528155852109194,0.9997235976570835,-0.0007319076570364543,0.023497371810969784,-0.00042265784694544146
2020-07-31 14:35:21.857,0.04522705078125,0.0045166015625,-0.9811248779296875,0.0007299724384211004,-0.009074455127120018,-0.004314587451517582,0.9997240148851623,-0.0007275488739893191,0.023480494267941854,-0.0004226281419005044
2020-07-31 14:35:21.867,0.045684814453125,0.00244140625,-0.9824981689453125,0.0007866977830417454,-0.005681321490556002,-0.005507949739694595,0.9997240743575029,-0.0007193062656729027,0.023473697257702774,-0.0004275424682945257
2020-07-31 14:35:21.877,0.0461273193359375,0.0014495849609375,-0.980712890625,0.0018455706303939223,-0.005787315312772989,-0.0032722260802984238,0.9997241339919545,-0.0006999020092689709,0.023472810124859238,-0.0004263955111224707
2020-07-31 14:35:21.887,0.0464324951171875,0.0002593994140625,-0.9805145263671875,0.0007912251749075949,-0.00669252360239625,-0.00407596817240119,0.9997241340035247,-0.0006810867408771526,0.02347249297704671,-0.0004259443087060652
2020-07-31 14:35:21.897,0.046417236328125,-0.0018157958984375,-0.98126220703125,-0.0010641991393640637,-0.007589742541313171,-0.0031731564085930586,0.9997241341393284,-0.0006761805509340248,0.02347629450578543,-0.00042085588080929034
2020-07-31 14:35:21.907,0.04632568359375,-0.00225830078125,-0.9806976318359375,0.0008367652189917862,-0.00809068325906992,-0.0046607982367277145,0.9997240745528013,-0.0006783492903800736,0.023477048934487682,-0.0004201814859310194
2020-07-31 14:35:21.917,0.046112060546875,-0.0027008056640625,-0.981689453125,-0.0005044027348048985,-0.0062578958459198475,-0.004591822158545256,0.9997238360715639,-0.0006933096416357965,0.023486077571606007,-0.00042266075202628916
2020-07-31 14:35:21.927,0.0447540283203125,-0.0010833740234375,-0.9814605712890625,-0.0010290454374626279,-0.008948220871388912,-0.003436276689171791,0.9997237169272101,-0.0007084212432912091,0.02348974924523293,-0.00042025887253808287
2020-07-31 14:35:21.937,0.0450592041015625,0.001953125,-0.981781005859375,-0.0011733887949958444,-0.008652610704302788,-0.004217914305627346,0.9997237765643486,-0.0007310977761082674,0.023485648300986112,-0.0004189969099215811
2020-07-31 14:35:21.947,0.0458221435546875,0.0032958984375,-0.981231689453125,-0.0020927118603140116,-0.008359928615391254,-0.0036099147982895374,0.9997239553649314,-0.0007551968502650849,0.023476967150020754,-0.0004194145329981448
2020-07-31 14:35:21.957,0.0477447509765625,0.0036468505859375,-0.981597900390625,-0.00330205331556499,-0.007170561235398054,-0.004491155035793781,0.9997239552701876,-0.0007715725563686237,0.023475844408608518,-0.000422989361464225
2020-07-31 14:35:21.967,0.0478363037109375,0.0042724609375,-0.9802703857421875,-0.0004985437262803316,-0.00788641907274723,-0.005873069167137146,0.9997239551518378,-0.0007780549732666896,0.0234756266508168,-0.00042746073038332094
2020-07-31 14:35:21.977,0.047515869140625,0.00439453125,-0.98089599609375,0.004295678809285164,-0.006901581771671772,-0.003549461020156741,0.9997239552189879,-0.0007636070071925979,0.02348042630476396,-0.0004249716208330611
2020-07-31 14:35:21.987,0.0480194091796875,0.004241943359375,-0.981109619140625,0.0027478495612740517,-0.007809986360371113,-0.003948668949306011,0.9997238956559911,-0.0007381798950833703,0.023483664771453444,-0.00042342165787011103
2020-07-31 14:35:21.997,0.0464630126953125,0.00311279296875,-0.9808197021484375,0.0014988270122557878,-0.007499727886170149,-0.0028069717809557915,0.9997238361470254,-0.0007143788622176373,0.02348290604471858,-0.0004197856784403398
2020-07-31 14:35:22.007,0.0458221435546875,0.0025787353515625,-0.9810791015625,0.0008689894457347691,-0.005182245280593634,-0.0036823528353124857,0.9997238361822649,-0.0006908201144050116,0.023485582042029773,-0.00041847230266891047
2020-07-31 14:35:22.017,0.0458831787109375,0.0013427734375,-0.9807891845703125,0.002552906284108758,-0.007258978206664324,-0.004947886802256107,0.9997240745676496,-0.000671027004810291,0.023476856888173657,-0.0004196143373617105
2020-07-31 14:35:22.027,0.0457611083984375,-0.00018310546875,-0.9808807373046875,-0.00043302998528815806,-0.005333246197551489,-0.003997670952230692,0.9997241341988999,-0.0006748054023071167,0.023476043012252753,-0.0004186021088942572
2020-07-31 14:35:22.037,0.0460662841796875,-0.000762939453125,-0.980743408203125,0.0009526127250865102,-0.005078914575278759,-0.004131894558668137,0.9997240745430844,-0.0006824393405537929,0.023478082810823222,-0.0004205627182346056
2020-07-31 14:35:22.047,0.04669189453125,0.0001373291015625,-0.98187255859375,-0.0012492889072746038,-0.005410744342952967,-0.002787264296784997,0.9997238361744977,-0.0007020367306901506,0.023487770947019405,-0.0004187971921156071
2020-07-31 14:35:22.057,0.04779052734375,0.0011138916015625,-0.9810791015625,-0.00216514989733696,-0.005994243081659079,-0.0032384039368480444,0.9997235382214189,-0.0007224531064488995,0.02349952105306178,-0.0004162947265561093
2020-07-31 14:35:22.067,0.047027587890625,0.0013427734375,-0.9798736572265625,-0.0010940266074612737,-0.006393983494490385,-0.004459196701645851,0.9997232998246495,-0.0007406531542429386,0.023509546291047255,-0.00041559681580511336
2020-07-31 14:35:22.077,0.046112060546875,0.000823974609375,-0.9818115234375,-0.0020090886391699314,-0.006928213406354189,-0.0028072381392121315,0.9997229423181339,-0.0007629853008669882,0.02352199307707705,-0.00041116927640015365
2020-07-31 14:35:22.087,0.0456695556640625,0.0014801025390625,-0.9812774658203125,0.0008420915110036731,-0.005392634775489569,-0.003448527306318283,0.9997227038903537,-0.0007711498552744826,0.02352863176054756,-0.00041159803010688064
2020-07-31 14:35:22.097,0.046539306640625,0.001220703125,-0.9815216064453125,0.00036938043194822967,-0.007661648094654083,-0.0035665053874254227,0.999722823102645,-0.00077792954574233,0.023523803963830203,-0.00041143272564884493
2020-07-31 14:35:22.107,0.04510498046875,0.00164794921875,-0.981170654296875,-0.0004844290087930858,-0.008041414432227612,-0.004129231441766024,0.9997230019090556,-0.0007794018343974091,0.023517806285446717,-0.0004116485067174654
2020-07-31 14:35:22.117,0.04595947265625,0.0014801025390625,-0.9805755615234375,3.1691615731688216e-05,-0.006666424684226513,-0.00404480891302228,0.999723061532281,-0.000771283990145339,0.02351672387367883,-0.00041092964123023133
2020-07-31 14:35:22.127,0.0464630126953125,0.00274658203125,-0.9813232421875,0.0012319782981649041,-0.007260309532284737,-0.004735100548714399,0.9997230615087789,-0.0007579211895987168,0.023517083010421484,-0.00041181401523132877
2020-07-31 14:35:22.137,0.0463409423828125,0.0035400390625,-0.9818115234375,0.0004021373169962317,-0.006116481963545084,-0.004804608877748251,0.9997229422323024,-0.0007515918165830059,0.02352321280804135,-0.00041441894836556745
2020-07-31 14:35:22.147,0.046478271484375,0.0037078857421875,-0.980682373046875,0.0015704660909250379,-0.005904227960854769,-0.004990763962268829,0.9997225845340312,-0.0007482456147145301,0.023537055898190058,-0.0004172360429054926
2020-07-31 14:35:22.157,0.046905517578125,0.0039520263671875,-0.9805450439453125,0.0007038734620437026,-0.007108509540557861,-0.003724164329469204,0.9997224653210673,-0.0007440194371293843,0.023544042568215337,-0.0004174530656170801
2020-07-31 14:35:22.167,0.047027587890625,0.002197265625,-0.9801177978515625,0.0010626012226566672,-0.007237140089273453,-0.007725830189883709,0.9997225246620123,-0.0007343175233893388,0.023540873952123904,-0.0004273714167476412
2020-07-31 14:35:22.177,0.045501708984375,0.001953125,-0.9814453125,-0.0009643306257203221,-0.0065284729935228825,-0.0041031320579349995,0.9997226438573762,-0.0007332689784063341,0.023536176333322417,-0.0004278426106624849
2020-07-31 14:35:22.187,0.0446624755859375,0.00054931640625,-0.98016357421875,0.001998968655243516,-0.007202519103884697,-0.00270710326731205,0.9997227035441753,-0.0007260737792809171,0.023535291386329548,-0.00042472526971168884
2020-07-31 14:35:22.197,0.0455780029296875,-0.0012664794921875,-0.9822845458984375,0.0013432984706014395,-0.006208893842995167,-0.002782204421237111,0.9997227036118043,-0.0007225123419947222,0.023533182777717803,-0.00042214451562565356
2020-07-31 14:35:22.207,0.0455780029296875,-0.00238037109375,-0.9816131591796875,0.0024642229545861483,-0.006139385048300028,-0.004525243304669857,0.9997226439049058,-0.0007178481030547888,0.023535371262332815,-0.00042602943735226115
2020-07-31 14:35:22.217,0.0464935302734375,-0.003265380859375,-0.9813232421875,-0.00020266656065359712,-0.005783320404589176,-0.004693288821727037,0.9997225842610723,-0.0007287934381389737,0.023538811857702034,-0.0004275554692915961
2020-07-31 14:35:22.227,0.046478271484375,-0.001861572265625,-0.98065185546875,-0.0006221143994480371,-0.007843009196221828,-0.0027949875220656395,0.9997225843927195,-0.0007460418404921811,0.02353821067990354,-0.0004225856754338303
2020-07-31 14:35:22.237,0.04583740234375,-0.0006103515625,-0.9802398681640625,0.00014993596414569765,-0.007540474180132151,-0.004442685283720493,0.9997225844222214,-0.0007654277760643505,0.023536374625033597,-0.00042146102207177126
2020-07-31 14:35:22.246,0.046417236328125,3.0517578125e-05,-0.9813995361328125,-0.00026258768048137426,-0.0070919981226325035,-0.0035665053874254227,0.9997225845892647,-0.0007813085601095354,0.02353689658601974,-0.00041516645053767375
2020-07-31 14:35:22.257,0.0461273193359375,0.002655029296875,-0.980743408203125,-0.0015694007743149996,-0.006588927004486322,-0.003072755178436637,0.999722525145455,-0.0007921889141167716,0.023539031465321946,-0.0004091221979180416
2020-07-31 14:35:22.267,0.046356201171875,0.0043487548828125,-0.9810791015625,-0.000949150591623038,-0.00657667638733983,-0.005949501879513264,0.9997226441984933,-0.000798155171865728,0.023535602493649173,-0.00041498778886406236
2020-07-31 14:35:22.277,0.0462646484375,0.004608154296875,-0.9807281494140625,-0.0018932411912828684,-0.007755657657980919,-0.0035420041531324387,0.9997228230496831,-0.0007980531668842984,0.023527775656045555,-0.0004134902270013184
2020-07-31 14:35:22.287,0.0473175048828125,0.00506591796875,-0.980194091796875,-0.0019648801535367966,-0.0073713636957108974,-0.005601160228252411,0.999722823030861,-0.0007883179792478557,0.02352612323208848,-0.00041417666699096413
2020-07-31 14:35:22.297,0.0465545654296875,0.00445556640625,-0.9797210693359375,-0.0005211806274019182,-0.006214486435055733,-0.004416053649038076,0.9997228230709395,-0.0007661864911014172,0.023526307048002484,-0.00041265257996215887
2020-07-31 14:35:22.307,0.047576904296875,0.0035247802734375,-0.980560302734375,0.002132392954081297,-0.008100003935396671,-0.004169711377471685,0.9997228230430332,-0.0007308760280486678,0.023526609724329316,-0.00041369038265717583
2020-07-31 14:35:22.317,0.0474700927734375,0.00250244140625,-0.9791259765625,0.002272475278005004,-0.00749067310243845,-0.004216316621750593,0.9997227634228713,-0.0007032129701168042,0.02352819037769026,-0.0004142792595102278
2020-07-31 14:35:22.327,0.047393798828125,0.0019378662109375,-0.9804534912109375,0.0014407701091840863,-0.007537811063230038,-0.004071174189448357,0.9997228827101382,-0.0006855138903118876,0.023527958941031157,-0.0004113213185990889
2020-07-31 14:35:22.337,0.045623779296875,-0.0001983642578125,-0.979705810546875,0.0021369203459471464,-0.008447812870144844,-0.004747084807604551,0.9997229423881223,-0.0006701004689247606,0.02352264068106126,-0.00040848121829094433
2020-07-31 14:35:22.347,0.045379638671875,0.0002288818359375,-0.9812469482421875,0.00032676986302249134,-0.007677360903471708,-0.004622182343155146,0.9997230616516091,-0.0006728839134672405,0.0235177978773536,-0.0004063797803160213
2020-07-31 14:35:22.357,0.0453948974609375,-0.0010986328125,-0.9809722900390625,-0.0006889597862027586,-0.006429669912904501,-0.005194495897740126,0.9997229423712258,-0.0006853204411812797,0.023522335610218558,-0.00040912441758631033
2020-07-31 14:35:22.367,0.0460052490234375,-0.0011444091796875,-0.9812164306640625,-7.989483492565341e-06,-0.008786301128566265,-0.005046956706792116,0.9997230018968627,-0.000703052717428494,0.023519685535689606,-0.0004120880094273707
2020-07-31 14:35:22.377,0.0458984375,-0.0001220703125,-0.9803924560546875,-0.0012575446162372828,-0.007576693315058947,-0.004582767374813557,0.9997229422944091,-0.0007291934203302926,0.023524387544084698,-0.00041207410412801205
2020-07-31 14:35:22.387,0.0458831787109375,0.00018310546875,-0.980377197265625,-0.0002998719282913953,-0.005666940473020077,-0.004445614758878946,0.9997227634953221,-0.0007484520632284458,0.023533254244812604,-0.00041162637181884585
2020-07-31 14:35:22.397,0.04571533203125,0.001220703125,-0.98089599609375,-0.0007632619817741215,-0.006109557580202818,-0.0036245621740818024,0.9997224655422926,-0.0007619173140517223,0.023545924313517094,-0.00040912876446363034
2020-07-31 14:35:22.407,0.0460205078125,0.00335693359375,-0.98077392578125,0.0003102582704741508,-0.00689119566231966,-0.004490355961024761,0.9997221675474841,-0.0007645129661582858,0.023557007120823297,-0.0004081848326801146
2020-07-31 14:35:22.417,0.0459136962890625,0.00262451171875,-0.9798736572265625,-0.0006122607155703008,-0.006376406643539667,-0.0037824877072125673,0.9997219887802467,-0.0007660216519220062,0.023565767180830904,-0.0004065229413705603
2020-07-31 14:35:22.427,0.0456085205078125,0.002349853515625,-0.9811859130859375,0.0010410296963527799,-0.008861934766173363,-0.004090082831680775,0.9997221079857449,-0.0007550300847419098,0.023558485809989742,-0.00040657599756166126
2020-07-31 14:35:22.437,0.0470733642578125,0.0027008056640625,-0.980438232421875,-0.0002388855500612408,-0.00875168014317751,-0.005271727219223976,0.9997224059460962,-0.0007476934925624723,0.023548995438770804,-0.0004088371381209413
2020-07-31 14:35:22.447,0.047698974609375,0.0028228759765625,-0.980926513671875,0.001279382617212832,-0.0065532405860722065,-0.0025867284275591373,0.9997224060662766,-0.0007328850534812826,0.023544759391629127,-0.0004042406202569514
2020-07-31 14:35:22.457,0.0473480224609375,0.001678466796875,-0.9813995361328125,0.0005105279851704836,-0.007898936048150063,-0.004280232358723879,0.9997225848620822,-0.000722060889708772,0.023541937197646086,-0.00040488669765326933
2020-07-31 14:35:22.467,0.0456085205078125,0.0028839111328125,-0.981658935546875,-0.00029081720276735723,-0.007274424657225609,-0.002840261207893491,0.9997227041765906,-0.0007146132301893506,0.023534987471401654,-0.0004008280822201642
2020-07-31 14:35:22.477,0.044891357421875,0.0023040771484375,-0.9817962646484375,-0.0009390306076966226,-0.006744721904397011,-0.0036274916492402554,0.9997227041872849,-0.0007099459528106082,0.023533268126376395,-0.0004004017097100512
2020-07-31 14:35:22.487,0.04595947265625,0.0017852783203125,-0.9813995361328125,-0.00025033715064637363,-0.008867527358233929,-0.005305283237248659,0.9997227637075929,-0.0007091373452162899,0.0235305337419497,-0.0004035552274882554
2020-07-31 14:35:22.497,0.046539306640625,0.00189208984375,-0.9808349609375,-0.0008564725867472589,-0.004820588044822216,-0.005465605296194553,0.9997227040834836,-0.0007178357261959382,0.02353701225202343,-0.00040437001929682275
2020-07-31 14:35:22.507,0.0464630126953125,0.0010528564453125,-0.9817047119140625,-0.0009094694978557527,-0.004259193316102028,-0.004281031433492899,0.9997225849138722,-0.0007239285446937264,0.023541808724549446,-0.0004029300768315402
2020-07-31 14:35:22.517,0.0470123291015625,0.000244140625,-0.980987548828125,-0.0021260015200823545,-0.006934871431440115,-0.005179049447178841,0.9997225252280615,-0.0007342283261286716,0.023539795477916518,-0.0004059784135916982
2020-07-31 14:35:22.527,0.0467681884765625,-0.0006103515625,-0.98162841796875,-0.0007813714328221977,-0.005872270092368126,-0.004732703324407339,0.9997223463258732,-0.0007398975479680238,0.023547471588685403,-0.00040940364023873954
2020-07-31 14:35:22.537,0.04638671875,-0.0007781982421875,-0.981353759765625,0.0005488775204867125,-0.007558850105851889,-0.0035361452028155327,0.9997222271755521,-0.0007454862666994759,0.023553085749065745,-0.00040724422182361516
2020-07-31 14:35:22.547,0.04656982421875,-0.00079345703125,-0.9801788330078125,-0.001198955113068223,-0.004561462439596653,-0.004354001954197884,0.999721929129815,-0.0007525046987794768,0.023564625021549913,-0.00040823167975633954
2020-07-31 14:35:22.557,0.0455474853515625,-0.0006256103515625,-0.980682373046875,-0.0013760552974417806,-0.006073072552680969,-0.003953196108341217,0.9997220482901634,-0.0007679807571842918,0.023563148353683165,-0.0004100718355237478
2020-07-31 14:35:22.567,0.045654296875,-0.0011138916015625,-0.981170654296875,-0.0011400992516428232,-0.007739412598311901,-0.003998736385256052,0.9997222271525413,-0.0007803807744242194,0.02355508715377825,-0.0004081559681305201
2020-07-31 14:35:22.577,0.0460357666015625,0.000579833984375,-0.9811859130859375,-0.0034402713645249605,-0.004274107050150633,-0.0028969866689294577,0.9997220484931558,-0.0007966318395177248,0.023559164914178397,-0.00040237460886267517
2020-07-31 14:35:22.587,0.046539306640625,0.0035400390625,-0.97991943359375,-0.0007701861904934049,-0.005221127066761255,-0.004500742070376873,0.9997219292797429,-0.0008022924270160055,0.02356541982642079,-0.0004026056917528192
2020-07-31 14:35:22.597,0.047210693359375,0.004852294921875,-0.97998046875,-0.0015422365395352244,-0.0074030552059412,-0.005840844940394163,0.9997219887476404,-0.0008008692756675696,0.023564380432819807,-0.0004077580312657018
2020-07-31 14:35:22.607,0.047882080078125,0.006317138671875,-0.9789886474609375,0.0015840481501072645,-0.006159891374409199,-0.005048554390668869,0.9997218098486336,-0.0007868118978125016,0.023568554248484582,-0.0004110116848649015
2020-07-31 14:35:22.617,0.0480194091796875,0.0057830810546875,-0.9792938232421875,0.00018508969515096396,-0.009971407242119312,-0.004285292699933052,0.9997220482566254,-0.0007725769708250977,0.023562364301787847,-0.00041133214919687234
2020-07-31 14:35:22.627,0.04705810546875,0.0059814453125,-0.9797210693359375,-0.00038056570338085294,-0.009761284105479717,-0.004191815387457609,0.9997222271088255,-0.0007592347154508755,0.023556235846004667,-0.0004098085935473222
2020-07-31 14:35:22.637,0.0451202392578125,0.0043487548828125,-0.98028564453125,0.0036999296862632036,-0.008422513492405415,-0.004405667539685965,0.9997222271843652,-0.0007344050518111772,0.023552703613434377,-0.0004069007350440713
2020-07-31 14:35:22.647,0.0456390380859375,0.002532958984375,-0.979827880859375,0.0016588830621913075,-0.007352188695222139,-0.005847236607223749,0.9997224654966853,-0.0007124632932106615,0.023545066187488382,-0.0004108138611439442
2020-07-31 14:35:22.657,0.0444793701171875,0.001190185546875,-0.980682373046875,0.0020839234348386526,-0.00968698225915432,-0.003103115363046527,0.9997227039970518,-0.0006897165054450094,0.0235359628384083,-0.00040760685140146905
2020-07-31 14:35:22.667,0.0452423095703125,-0.0013427734375,-0.9813232421875,0.002359027974307537,-0.00649704784154892,-0.003826696192845702,0.9997226444544975,-0.0006782396466627361,0.023538044971794903,-0.00040527920926967443
2020-07-31 14:35:22.677,0.0463409423828125,-0.002227783203125,-0.98052978515625,0.0025627599097788334,-0.006077333353459835,-0.0041060615330934525,0.9997225252299122,-0.0006826391283601712,0.023541289816129015,-0.0004058968779946401
2020-07-31 14:35:22.687,0.048553466796875,-0.001953125,-0.979766845703125,0.0005696501466445625,-0.007066165097057819,-0.00472657848149538,0.999722346417324,-0.0007012855763718275,0.023548893627259874,-0.00040594420166728225
2020-07-31 14:35:22.697,0.0478057861328125,-0.00323486328125,-0.9799652099609375,0.0027025758754462004,-0.007135940250009298,-0.00455666845664382,0.9997221080054861,-0.0007231062719630608,0.023558348991701294,-0.00040581090633378465
2020-07-31 14:35:22.707,0.0471038818359375,-0.001983642578125,-0.980438232421875,-0.002620816696435213,-0.007683486212044954,-0.004828577395528555,0.9997219887633243,-0.000755813747904335,0.023562369445872717,-0.00040711723851565777
2020-07-31 14:35:22.717,0.0455169677734375,0.0001678466796875,-0.9811248779296875,-0.0006468818173743784,-0.007171360310167074,-0.003924966789782047,0.9997219887232263,-0.0007842292129572539,0.02356240000051675,-0.00040864805044413293
2020-07-31 14:35:22.727,0.04541015625,0.0019683837890625,-0.9815216064453125,-0.00247567449696362,-0.008333297446370125,-0.004108192399144173,0.9997221675084651,-0.00080577491340584,0.023552891767522597,-0.0004096342742821978
2020-07-31 14:35:22.737,0.0444183349609375,0.004913330078125,-0.9820098876953125,-0.004055461846292019,-0.009318133816123009,-0.004764395300298929,0.999722525099903,-0.0008239219279642891,0.023541137094473676,-0.00041088479373134007
2020-07-31 14:35:22.746,0.0447540283203125,0.0051422119140625,-0.9813232421875,0.0018570221727713943,-0.006902380846440792,-0.004170776344835758,0.9997226442287442,-0.000819671150070409,0.023531888948882734,-0.0004138143872645421
2020-07-31 14:35:22.757,0.045684814453125,0.0045928955078125,-0.9798583984375,0.00013395700079854578,-0.004144144710153341,-0.004204865079373121,0.9997226441851188,-0.0008011857705939649,0.023532760177426535,-0.0004154618912234865
2020-07-31 14:35:22.767,0.047271728515625,0.0052337646484375,-0.9804534912109375,0.00041492050513625145,-0.004854942671954632,-0.0027121631428599358,0.9997226443166337,-0.0007778328082012798,0.023536870416880525,-0.0004105286975212865
2020-07-31 14:35:22.777,0.047698974609375,0.0037384033203125,-0.9800872802734375,0.002042910782620311,-0.007468036375939846,-0.004350007511675358,0.9997224059571864,-0.0007551093100920818,0.023547293177451457,-0.00040840276574548263
2020-07-31 14:35:22.787,0.0467071533203125,0.001434326171875,-0.979034423828125,0.0003813646617345512,-0.007174289785325527,-0.0030008498579263687,0.9997222869150897,-0.000728213864151578,0.023552308568666778,-0.0004021304714658585
2020-07-31 14:35:22.797,0.04638671875,-0.001434326171875,-0.9805450439453125,0.002484729280695319,-0.00884941779077053,-0.004367051646113396,0.9997224061514051,-0.000703928616048579,0.023548781938436042,-0.00040105537177756933
2020-07-31 14:35:22.807,0.0449371337890625,-0.0015411376953125,-0.980743408203125,0.001939313835464418,-0.007101318798959255,-0.004926581867039204,0.9997224657171845,-0.0006935456314702983,0.023545069411810064,-0.00040247473493138587
2020-07-31 14:35:22.817,0.044586181640625,-0.0014190673828125,-0.981964111328125,-0.0016900419723242521,-0.00484215933829546,-0.003093527862802148,0.9997224658283191,-0.0007009479972396729,0.023545827704292595,-0.00039828989744973336
2020-07-31 14:35:22.827,0.0450286865234375,-0.0017547607421875,-0.9815826416015625,-0.0010743191232904792,-0.008551676757633686,-0.005145493429154158,0.9997228234162071,-0.0007213379302298302,0.023531772723893927,-0.0003996492368382808
2020-07-31 14:35:22.837,0.0456695556640625,-0.0010833740234375,-0.9810791015625,-0.0014223942998796701,-0.007448062766343355,-0.005403287708759308,0.9997228829350723,-0.0007446843269676579,0.023525038017237054,-0.0004028246481288859
2020-07-31 14:35:22.847,0.047119140625,0.0016937255859375,-0.979583740234375,-0.00096113485051319,-0.007845406420528889,-0.004630970768630505,0.9997228829149161,-0.0007658351877854427,0.023524971521992847,-0.00040359704113284377
2020-07-31 14:35:22.857,0.047393798828125,0.002593994140625,-0.9797515869140625,-0.0021912488155066967,-0.0081487400457263,-0.0038304245099425316,0.9997227637812958,-0.0007920576913589379,0.023531189725664824,-0.00040082531352548715
2020-07-31 14:35:22.867,0.046539306640625,0.002410888671875,-0.9795074462890625,-0.00037923414492979646,-0.006115150637924671,-0.0051745218224823475,0.9997225252816836,-0.0008068559599228838,0.02354144025370622,-0.0004040126175318382
2020-07-31 14:35:22.877,0.0461578369140625,0.0029449462890625,-0.9808807373046875,-0.000743820914067328,-0.007820106111466885,-0.0041124531999230385,0.9997224656580469,-0.0008072264119565107,0.023542932242290242,-0.00040474740044329794
2020-07-31 14:35:22.887,0.0447845458984375,0.00244140625,-0.9809112548828125,0.0014500912511721253,-0.006571882404386997,-0.002799781272187829,0.9997224061233007,-0.0007855458825917944,0.023546617842985413,-0.00040213762264427425
2020-07-31 14:35:22.897,0.0435638427734375,0.0023651123046875,-0.98089599609375,-0.0030690268613398075,-0.005834186915308237,-0.0034384073223918676,0.9997224657315738,-0.0007761174323105023,0.023543419431662257,-0.00040195840000600776
2020-07-31 14:35:22.907,0.0440826416015625,0.0024871826171875,-0.9811248779296875,0.002528937766328454,-0.0073378076776862144,-0.0046360306441783905,0.999722704065081,-0.0007550641956679679,0.0235320735027783,-0.00040502899965445447
2020-07-31 14:35:22.917,0.0462799072265625,0.0022125244140625,-0.9809722900390625,0.0007454187725670636,-0.0059628174640238285,-0.005606752820312977,0.9997228827454067,-0.0007348421104998432,0.02352494089922384,-0.00040998197543932303
